"pp";"counterbalance";"blockNum";"trialNum";"rt";"Response";"Attempt";"error";"Timed.Out";"ANSWER";"cuecolor";"framecolor";"task";"stimulus";"cocoa";"task_R";"ANSWER_R";"cuecolor_R";"error_R";"prolific";"age";"sex";"psyKnowledge";"education";"handedness";"motherTongue";"country"
"5c02a0089649f9000153798b";"BRAC1_vertAA_1st0";0;0;1158,20499999973;"L";1;1;NA;"A";"red";"black";"parity";7;0;99;99;99;99;1;"23";"male";"Not at all";"Bachelor degree";"right-handed";"Hungary";"Hungary"
"5c02a0089649f9000153798b";"BRAC1_vertAA_1st0";0;1;1473,53000000294;"A";1;1;NA;"L";"red";"black";"parity";8;0;0;1;0;1;1;"23";"male";"Not at all";"Bachelor degree";"right-handed";"Hungary";"Hungary"
"5c02a0089649f9000153798b";"BRAC1_vertAA_1st0";0;2;625,134999994771;"A";1;0;NA;"A";"blue";"black";"magnit";6;0;1;1;1;1;1;"23";"male";"Not at all";"Bachelor degree";"right-handed";"Hungary";"Hungary"
"5c02a0089649f9000153798b";"BRAC1_vertAA_1st0";0;3;611,089999998512;"L";1;0;NA;"L";"blue";"black";"magnit";1;0;0;1;0;0;1;"23";"male";"Not at all";"Bachelor degree";"right-handed";"Hungary";"Hungary"
"5c02a0089649f9000153798b";"BRAC1_vertAA_1st0";0;4;1301,35500000324;"L";1;0;NA;"L";"blue";"black";"parity";4;0;1;0;0;0;1;"23";"male";"Not at all";"Bachelor degree";"right-handed";"Hungary";"Hungary"
"5c02a0089649f9000153798b";"BRAC1_vertAA_1st0";0;5;813,184999999066;"L";1;0;NA;"L";"red";"black";"parity";6;0;0;0;1;0;1;"23";"male";"Not at all";"Bachelor degree";"right-handed";"Hungary";"Hungary"
"5c02a0089649f9000153798b";"BRAC1_vertAA_1st0";0;6;574,025000001711;"L";1;0;NA;"L";"red";"black";"parity";8;0;0;0;0;0;1;"23";"male";"Not at all";"Bachelor degree";"right-handed";"Hungary";"Hungary"
"5c02a0089649f9000153798b";"BRAC1_vertAA_1st0";0;7;844,209999995655;"L";1;0;NA;"L";"blue";"black";"parity";6;0;0;0;1;0;1;"23";"male";"Not at all";"Bachelor degree";"right-handed";"Hungary";"Hungary"
"5c02a0089649f9000153798b";"BRAC1_vertAA_1st0";0;8;787,335000000894;"L";1;0;NA;"L";"red";"black";"parity";2;0;0;0;1;0;1;"23";"male";"Not at all";"Bachelor degree";"right-handed";"Hungary";"Hungary"
"5c02a0089649f9000153798b";"BRAC1_vertAA_1st0";0;9;440,510000000359;"A";1;0;NA;"A";"blue";"black";"magnit";8;0;1;1;1;0;1;"23";"male";"Not at all";"Bachelor degree";"right-handed";"Hungary";"Hungary"
"5c02a0089649f9000153798b";"BRAC1_vertAA_1st0";0;10;746,014999996987;"A";1;0;NA;"A";"red";"black";"magnit";7;0;0;0;1;0;1;"23";"male";"Not at all";"Bachelor degree";"right-handed";"Hungary";"Hungary"
"5c02a0089649f9000153798b";"BRAC1_vertAA_1st0";0;11;482,819999997446;"L";1;0;NA;"L";"blue";"black";"magnit";4;0;0;1;1;0;1;"23";"male";"Not at all";"Bachelor degree";"right-handed";"Hungary";"Hungary"
"5c02a0089649f9000153798b";"BRAC1_vertAA_1st0";0;12;1248,53499999881;"L";1;1;NA;"A";"red";"black";"parity";1;0;1;1;1;0;1;"23";"male";"Not at all";"Bachelor degree";"right-handed";"Hungary";"Hungary"
"5c02a0089649f9000153798b";"BRAC1_vertAA_1st0";0;13;572,074999996403;"L";1;0;NA;"L";"blue";"black";"parity";6;0;0;1;1;1;1;"23";"male";"Not at all";"Bachelor degree";"right-handed";"Hungary";"Hungary"
"5c02a0089649f9000153798b";"BRAC1_vertAA_1st0";0;14;460,059999997611;"A";1;0;NA;"A";"blue";"black";"parity";9;0;0;1;0;0;1;"23";"male";"Not at all";"Bachelor degree";"right-handed";"Hungary";"Hungary"
"5c02a0089649f9000153798b";"BRAC1_vertAA_1st0";0;15;433,389999998326;"L";1;0;NA;"L";"blue";"black";"parity";2;0;0;1;0;0;1;"23";"male";"Not at all";"Bachelor degree";"right-handed";"Hungary";"Hungary"
"5c02a0089649f9000153798b";"BRAC1_vertAA_1st0";0;16;423,305000003893;"A";1;0;NA;"A";"blue";"black";"parity";1;0;0;1;0;0;1;"23";"male";"Not at all";"Bachelor degree";"right-handed";"Hungary";"Hungary"
"5c02a0089649f9000153798b";"BRAC1_vertAA_1st0";0;17;639,43499999732;"L";1;0;NA;"L";"blue";"black";"parity";4;0;0;1;0;0;1;"23";"male";"Not at all";"Bachelor degree";"right-handed";"Hungary";"Hungary"
"5c02a0089649f9000153798b";"BRAC1_vertAA_1st0";0;18;559,775000001537;"L";1;0;NA;"L";"red";"black";"magnit";2;0;1;0;1;0;1;"23";"male";"Not at all";"Bachelor degree";"right-handed";"Hungary";"Hungary"
"5c02a0089649f9000153798b";"BRAC1_vertAA_1st0";0;19;596,94500000478;"A";1;1;NA;"L";"blue";"black";"parity";8;0;1;0;1;0;1;"23";"male";"Not at all";"Bachelor degree";"right-handed";"Hungary";"Hungary"
"5c02a0089649f9000153798b";"BRAC1_vertAA_1st0";0;20;506,689999994705;"L";1;0;NA;"L";"red";"black";"magnit";1;0;1;0;1;1;1;"23";"male";"Not at all";"Bachelor degree";"right-handed";"Hungary";"Hungary"
"5c02a0089649f9000153798b";"BRAC1_vertAA_1st0";0;21;1531,71999999904;"A";1;0;NA;"A";"blue";"black";"parity";9;0;1;1;1;0;1;"23";"male";"Not at all";"Bachelor degree";"right-handed";"Hungary";"Hungary"
"5c02a0089649f9000153798b";"BRAC1_vertAA_1st0";0;22;446,554999994987;"A";1;0;NA;"A";"blue";"black";"magnit";7;0;1;0;0;0;1;"23";"male";"Not at all";"Bachelor degree";"right-handed";"Hungary";"Hungary"
"5c02a0089649f9000153798b";"BRAC1_vertAA_1st0";0;23;680,07999999827;"A";1;0;NA;"A";"red";"black";"parity";9;0;1;0;1;0;1;"23";"male";"Not at all";"Bachelor degree";"right-handed";"Hungary";"Hungary"
"5c02a0089649f9000153798b";"BRAC1_vertAA_1st0";0;24;894,860000000335;"A";1;0;NA;"A";"blue";"black";"parity";3;0;0;0;1;0;1;"23";"male";"Not at all";"Bachelor degree";"right-handed";"Hungary";"Hungary"
"5c02a0089649f9000153798b";"BRAC1_vertAA_1st0";0;25;479,859999999462;"A";1;0;NA;"A";"red";"black";"magnit";9;0;1;0;1;0;1;"23";"male";"Not at all";"Bachelor degree";"right-handed";"Hungary";"Hungary"
"5c02a0089649f9000153798b";"BRAC1_vertAA_1st0";0;26;643,420000000333;"L";1;0;NA;"L";"red";"black";"parity";2;0;1;1;0;0;1;"23";"male";"Not at all";"Bachelor degree";"right-handed";"Hungary";"Hungary"
"5c02a0089649f9000153798b";"BRAC1_vertAA_1st0";0;27;770,089999998163;"L";1;0;NA;"L";"red";"black";"parity";4;0;0;0;0;0;1;"23";"male";"Not at all";"Bachelor degree";"right-handed";"Hungary";"Hungary"
"5c02a0089649f9000153798b";"BRAC1_vertAA_1st0";0;28;558,949999998731;"L";1;0;NA;"L";"red";"black";"magnit";3;0;1;0;0;0;1;"23";"male";"Not at all";"Bachelor degree";"right-handed";"Hungary";"Hungary"
"5c02a0089649f9000153798b";"BRAC1_vertAA_1st0";0;29;809,119999998074;"A";1;1;NA;"L";"red";"black";"parity";4;0;1;0;0;0;1;"23";"male";"Not at all";"Bachelor degree";"right-handed";"Hungary";"Hungary"
"5c02a0089649f9000153798b";"BRAC1_vertAA_1st0";0;30;790,209999999206;"A";1;0;NA;"A";"red";"black";"parity";3;0;0;1;0;1;1;"23";"male";"Not at all";"Bachelor degree";"right-handed";"Hungary";"Hungary"
"5c02a0089649f9000153798b";"BRAC1_vertAA_1st0";0;31;535,194999996747;"A";1;0;NA;"A";"red";"black";"parity";1;0;0;0;0;0;1;"23";"male";"Not at all";"Bachelor degree";"right-handed";"Hungary";"Hungary"
"5c02a0089649f9000153798b";"BRAC1_vertAA_1st0";0;32;551,325000000361;"L";1;0;NA;"L";"blue";"black";"magnit";2;0;1;1;1;0;1;"23";"male";"Not at all";"Bachelor degree";"right-handed";"Hungary";"Hungary"
"5c02a0089649f9000153798b";"BRAC1_vertAA_1st0";0;33;723,344999998517;"L";1;0;NA;"L";"blue";"black";"parity";8;0;1;0;0;0;1;"23";"male";"Not at all";"Bachelor degree";"right-handed";"Hungary";"Hungary"
"5c02a0089649f9000153798b";"BRAC1_vertAA_1st0";0;34;641,660000001139;"A";1;1;NA;"L";"blue";"black";"magnit";3;0;1;0;0;0;1;"23";"male";"Not at all";"Bachelor degree";"right-handed";"Hungary";"Hungary"
"5c02a0089649f9000153798b";"BRAC1_vertAA_1st0";0;35;523,35000000312;"A";1;0;NA;"A";"red";"black";"magnit";7;0;0;1;1;1;1;"23";"male";"Not at all";"Bachelor degree";"right-handed";"Hungary";"Hungary"
"5c02a0089649f9000153798b";"BRAC1_vertAA_1st0";0;36;1538,32500000135;"L";1;0;NA;"L";"red";"black";"magnit";3;0;0;1;0;0;1;"23";"male";"Not at all";"Bachelor degree";"right-handed";"Hungary";"Hungary"
"5c02a0089649f9000153798b";"BRAC1_vertAA_1st0";0;37;452,224999993632;"A";1;0;NA;"A";"blue";"black";"magnit";7;0;0;1;1;0;1;"23";"male";"Not at all";"Bachelor degree";"right-handed";"Hungary";"Hungary"
"5c02a0089649f9000153798b";"BRAC1_vertAA_1st0";0;38;495,484999999462;"L";1;0;NA;"L";"blue";"black";"magnit";3;0;0;1;0;0;1;"23";"male";"Not at all";"Bachelor degree";"right-handed";"Hungary";"Hungary"
"5c02a0089649f9000153798b";"BRAC1_vertAA_1st0";0;39;621,869999995397;"A";1;0;NA;"A";"red";"black";"parity";9;0;1;1;1;0;1;"23";"male";"Not at all";"Bachelor degree";"right-handed";"Hungary";"Hungary"
"5c02a0089649f9000153798b";"BRAC1_vertAA_1st0";0;40;2501,10000000001;NA;NA;1;1;"A";"blue";"black";"magnit";7;0;1;0;1;0;1;"23";"male";"Not at all";"Bachelor degree";"right-handed";"Hungary";"Hungary"
"5c02a0089649f9000153798b";"BRAC1_vertAA_1st0";0;41;495,305000004009;"A";1;0;NA;"A";"blue";"black";"magnit";8;0;0;0;0;1;1;"23";"male";"Not at all";"Bachelor degree";"right-handed";"Hungary";"Hungary"
"5c02a0089649f9000153798b";"BRAC1_vertAA_1st0";0;42;594,529999994847;"L";1;1;NA;"A";"red";"black";"parity";3;0;1;0;1;0;1;"23";"male";"Not at all";"Bachelor degree";"right-handed";"Hungary";"Hungary"
"5c02a0089649f9000153798b";"BRAC1_vertAA_1st0";0;43;477,685000005295;"A";1;0;NA;"A";"blue";"black";"magnit";9;0;1;0;1;1;1;"23";"male";"Not at all";"Bachelor degree";"right-handed";"Hungary";"Hungary"
"5c02a0089649f9000153798b";"BRAC1_vertAA_1st0";0;44;565,824999997858;"A";1;0;NA;"A";"red";"black";"magnit";6;0;0;0;1;0;1;"23";"male";"Not at all";"Bachelor degree";"right-handed";"Hungary";"Hungary"
"5c02a0089649f9000153798b";"BRAC1_vertAA_1st0";0;45;380,694999999832;"A";1;1;NA;"L";"red";"black";"magnit";1;0;0;1;0;0;1;"23";"male";"Not at all";"Bachelor degree";"right-handed";"Hungary";"Hungary"
"5c02a0089649f9000153798b";"BRAC1_vertAA_1st0";0;46;595,809999998892;"A";1;0;NA;"A";"blue";"black";"parity";9;0;1;1;1;1;1;"23";"male";"Not at all";"Bachelor degree";"right-handed";"Hungary";"Hungary"
"5c02a0089649f9000153798b";"BRAC1_vertAA_1st0";0;47;440,269999999146;"A";1;0;NA;"A";"blue";"black";"magnit";6;0;1;0;0;0;1;"23";"male";"Not at all";"Bachelor degree";"right-handed";"Hungary";"Hungary"
"5c02a0089649f9000153798b";"BRAC1_vertAA_1st0";0;48;1302,52499999915;"A";1;0;NA;"A";"blue";"black";"parity";7;0;1;0;0;0;1;"23";"male";"Not at all";"Bachelor degree";"right-handed";"Hungary";"Hungary"
"5c02a0089649f9000153798b";"BRAC1_vertAA_1st0";0;49;513,014999996813;"L";1;0;NA;"L";"red";"black";"magnit";3;0;1;1;1;0;1;"23";"male";"Not at all";"Bachelor degree";"right-handed";"Hungary";"Hungary"
"5c02a0089649f9000153798b";"BRAC1_vertAA_1st0";0;50;649,364999997488;"L";1;0;NA;"L";"blue";"black";"parity";6;0;1;0;1;0;1;"23";"male";"Not at all";"Bachelor degree";"right-handed";"Hungary";"Hungary"
"5c02a0089649f9000153798b";"BRAC1_vertAA_1st0";0;51;644,189999999071;"L";1;0;NA;"L";"blue";"black";"magnit";1;0;1;0;0;0;1;"23";"male";"Not at all";"Bachelor degree";"right-handed";"Hungary";"Hungary"
"5c02a0089649f9000153798b";"BRAC1_vertAA_1st0";0;52;1179,64000000211;"L";1;0;NA;"L";"red";"black";"parity";6;0;1;0;1;0;1;"23";"male";"Not at all";"Bachelor degree";"right-handed";"Hungary";"Hungary"
"5c02a0089649f9000153798b";"BRAC1_vertAA_1st0";0;53;817,474999996193;"A";1;0;NA;"A";"red";"black";"magnit";9;0;1;1;0;0;1;"23";"male";"Not at all";"Bachelor degree";"right-handed";"Hungary";"Hungary"
"5c02a0089649f9000153798b";"BRAC1_vertAA_1st0";0;54;462,885000000824;"L";1;0;NA;"L";"red";"black";"magnit";1;0;0;1;0;0;1;"23";"male";"Not at all";"Bachelor degree";"right-handed";"Hungary";"Hungary"
"5c02a0089649f9000153798b";"BRAC1_vertAA_1st0";0;55;700,044999997772;"L";1;0;NA;"L";"blue";"black";"magnit";2;0;0;0;1;0;1;"23";"male";"Not at all";"Bachelor degree";"right-handed";"Hungary";"Hungary"
"5c02a0089649f9000153798b";"BRAC1_vertAA_1st0";0;56;676,420000003418;"A";1;0;NA;"A";"blue";"black";"parity";3;0;1;1;0;0;1;"23";"male";"Not at all";"Bachelor degree";"right-handed";"Hungary";"Hungary"
"5c02a0089649f9000153798b";"BRAC1_vertAA_1st0";0;57;424,310000002151;"L";1;0;NA;"L";"red";"black";"magnit";2;0;1;1;1;0;1;"23";"male";"Not at all";"Bachelor degree";"right-handed";"Hungary";"Hungary"
"5c02a0089649f9000153798b";"BRAC1_vertAA_1st0";0;58;454,969999998866;"A";1;0;NA;"A";"red";"black";"magnit";8;0;0;1;0;0;1;"23";"male";"Not at all";"Bachelor degree";"right-handed";"Hungary";"Hungary"
"5c02a0089649f9000153798b";"BRAC1_vertAA_1st0";0;59;435,640000003332;"L";1;0;NA;"L";"red";"black";"magnit";2;0;0;1;0;0;1;"23";"male";"Not at all";"Bachelor degree";"right-handed";"Hungary";"Hungary"
"5c02a0089649f9000153798b";"BRAC1_vertAA_1st0";0;60;915,254999999888;"L";1;0;NA;"L";"blue";"black";"magnit";4;0;0;0;1;0;1;"23";"male";"Not at all";"Bachelor degree";"right-handed";"Hungary";"Hungary"
"5c02a0089649f9000153798b";"BRAC1_vertAA_1st0";0;61;1092,97499999957;"L";1;0;NA;"L";"red";"black";"parity";8;0;1;0;1;0;1;"23";"male";"Not at all";"Bachelor degree";"right-handed";"Hungary";"Hungary"
"5c02a0089649f9000153798b";"BRAC1_vertAA_1st0";0;62;576,750000000175;"L";1;1;NA;"A";"blue";"black";"parity";1;0;0;1;1;0;1;"23";"male";"Not at all";"Bachelor degree";"right-handed";"Hungary";"Hungary"
"5c02a0089649f9000153798b";"BRAC1_vertAA_1st0";0;63;885,089999996126;"A";1;0;NA;"A";"red";"black";"parity";3;0;0;0;1;1;1;"23";"male";"Not at all";"Bachelor degree";"right-handed";"Hungary";"Hungary"
"5c02a0089649f9000153798b";"BRAC1_vertAA_1st0";0;64;529,835000001185;"A";1;0;NA;"A";"red";"black";"magnit";9;0;1;0;0;0;1;"23";"male";"Not at all";"Bachelor degree";"right-handed";"Hungary";"Hungary"
"5c02a0089649f9000153798b";"BRAC1_vertAA_1st0";0;65;951,969999994617;"L";1;1;NA;"A";"red";"black";"parity";1;0;1;0;0;0;1;"23";"male";"Not at all";"Bachelor degree";"right-handed";"Hungary";"Hungary"
"5c02a0089649f9000153798b";"BRAC1_vertAA_1st0";0;66;485,749999999825;"A";1;0;NA;"A";"blue";"black";"magnit";8;0;1;0;1;1;1;"23";"male";"Not at all";"Bachelor degree";"right-handed";"Hungary";"Hungary"
"5c02a0089649f9000153798b";"BRAC1_vertAA_1st0";0;67;293,165000002773;"A";1;0;NA;"A";"blue";"black";"magnit";6;0;0;0;0;0;1;"23";"male";"Not at all";"Bachelor degree";"right-handed";"Hungary";"Hungary"
"5c02a0089649f9000153798b";"BRAC1_vertAA_1st0";0;68;740,975000000617;"A";1;0;NA;"A";"blue";"black";"parity";1;0;1;0;0;0;1;"23";"male";"Not at all";"Bachelor degree";"right-handed";"Hungary";"Hungary"
"5c02a0089649f9000153798b";"BRAC1_vertAA_1st0";0;69;499,589999999444;"L";1;0;NA;"L";"red";"black";"parity";6;0;0;1;1;0;1;"23";"male";"Not at all";"Bachelor degree";"right-handed";"Hungary";"Hungary"
"5c02a0089649f9000153798b";"BRAC1_vertAA_1st0";0;70;699,710000000778;"A";1;0;NA;"A";"red";"black";"magnit";7;0;1;1;0;0;1;"23";"male";"Not at all";"Bachelor degree";"right-handed";"Hungary";"Hungary"
"5c02a0089649f9000153798b";"BRAC1_vertAA_1st0";0;71;443,120000003546;"A";1;0;NA;"A";"blue";"black";"magnit";9;0;0;0;1;0;1;"23";"male";"Not at all";"Bachelor degree";"right-handed";"Hungary";"Hungary"
"5c02a0089649f9000153798b";"BRAC1_vertAA_1st0";0;72;518,015000001469;"L";1;0;NA;"L";"blue";"black";"parity";2;0;1;1;0;0;1;"23";"male";"Not at all";"Bachelor degree";"right-handed";"Hungary";"Hungary"
"5c02a0089649f9000153798b";"BRAC1_vertAA_1st0";0;73;432,049999995797;"A";1;0;NA;"A";"blue";"black";"magnit";9;0;1;1;0;0;1;"23";"male";"Not at all";"Bachelor degree";"right-handed";"Hungary";"Hungary"
"5c02a0089649f9000153798b";"BRAC1_vertAA_1st0";0;74;726,920000000973;"L";1;0;NA;"L";"red";"black";"parity";2;0;1;1;1;0;1;"23";"male";"Not at all";"Bachelor degree";"right-handed";"Hungary";"Hungary"
"5c02a0089649f9000153798b";"BRAC1_vertAA_1st0";0;75;453,809999999066;"A";1;0;NA;"A";"red";"black";"magnit";6;0;1;1;0;0;1;"23";"male";"Not at all";"Bachelor degree";"right-handed";"Hungary";"Hungary"
"5c02a0089649f9000153798b";"BRAC1_vertAA_1st0";0;76;514,489999994112;"L";1;0;NA;"L";"blue";"black";"magnit";4;0;0;1;1;0;1;"23";"male";"Not at all";"Bachelor degree";"right-handed";"Hungary";"Hungary"
"5c02a0089649f9000153798b";"BRAC1_vertAA_1st0";0;77;663,479999995616;"L";1;0;NA;"L";"blue";"black";"magnit";1;0;0;0;0;0;1;"23";"male";"Not at all";"Bachelor degree";"right-handed";"Hungary";"Hungary"
"5c02a0089649f9000153798b";"BRAC1_vertAA_1st0";0;78;657,359999997425;"L";1;0;NA;"L";"red";"black";"magnit";4;0;0;0;1;0;1;"23";"male";"Not at all";"Bachelor degree";"right-handed";"Hungary";"Hungary"
"5c02a0089649f9000153798b";"BRAC1_vertAA_1st0";0;79;574,955000003683;"A";1;0;NA;"A";"red";"black";"magnit";8;0;0;1;0;0;1;"23";"male";"Not at all";"Bachelor degree";"right-handed";"Hungary";"Hungary"
"5c02a0089649f9000153798b";"BRAC1_vertAA_1st0";0;80;408,759999998438;"A";1;1;NA;"L";"blue";"black";"magnit";3;0;0;1;1;0;1;"23";"male";"Not at all";"Bachelor degree";"right-handed";"Hungary";"Hungary"
"5c02a0089649f9000153798b";"BRAC1_vertAA_1st0";0;81;622,914999999921;"A";1;0;NA;"A";"red";"black";"magnit";8;0;0;1;1;1;1;"23";"male";"Not at all";"Bachelor degree";"right-handed";"Hungary";"Hungary"
"5c02a0089649f9000153798b";"BRAC1_vertAA_1st0";0;82;514,875000000757;"L";1;0;NA;"L";"blue";"black";"parity";2;0;1;1;1;0;1;"23";"male";"Not at all";"Bachelor degree";"right-handed";"Hungary";"Hungary"
"5c02a0089649f9000153798b";"BRAC1_vertAA_1st0";0;83;460,075000002689;"A";1;0;NA;"A";"blue";"black";"parity";7;0;0;1;0;0;1;"23";"male";"Not at all";"Bachelor degree";"right-handed";"Hungary";"Hungary"
"5c02a0089649f9000153798b";"BRAC1_vertAA_1st0";0;84;1454,90499999869;"L";1;0;NA;"L";"blue";"black";"parity";4;0;0;1;0;0;1;"23";"male";"Not at all";"Bachelor degree";"right-handed";"Hungary";"Hungary"
"5c02a0089649f9000153798b";"BRAC1_vertAA_1st0";0;85;1906,4800000051;"A";1;0;NA;"A";"red";"black";"parity";7;0;0;1;1;0;1;"23";"male";"Not at all";"Bachelor degree";"right-handed";"Hungary";"Hungary"
"5c02a0089649f9000153798b";"BRAC1_vertAA_1st0";0;86;469,709999997576;"L";1;0;NA;"L";"blue";"black";"magnit";2;0;1;1;1;0;1;"23";"male";"Not at all";"Bachelor degree";"right-handed";"Hungary";"Hungary"
"5c02a0089649f9000153798b";"BRAC1_vertAA_1st0";0;87;563,394999997399;"A";1;0;NA;"A";"red";"black";"magnit";6;0;0;1;1;0;1;"23";"male";"Not at all";"Bachelor degree";"right-handed";"Hungary";"Hungary"
"5c02a0089649f9000153798b";"BRAC1_vertAA_1st0";0;88;500,045000000682;"A";1;1;NA;"L";"red";"black";"parity";4;0;1;1;0;0;1;"23";"male";"Not at all";"Bachelor degree";"right-handed";"Hungary";"Hungary"
"5c02a0089649f9000153798b";"BRAC1_vertAA_1st0";0;89;518,570000000182;"L";1;1;NA;"A";"blue";"black";"parity";7;0;0;1;1;1;1;"23";"male";"Not at all";"Bachelor degree";"right-handed";"Hungary";"Hungary"
"5c02a0089649f9000153798b";"BRAC1_vertAA_1st0";0;90;510,354999998526;"L";1;0;NA;"L";"red";"black";"magnit";4;0;1;1;1;1;1;"23";"male";"Not at all";"Bachelor degree";"right-handed";"Hungary";"Hungary"
"5c02a0089649f9000153798b";"BRAC1_vertAA_1st0";0;91;1356,98000000411;"A";1;0;NA;"A";"red";"black";"parity";7;0;1;1;0;0;1;"23";"male";"Not at all";"Bachelor degree";"right-handed";"Hungary";"Hungary"
"5c02a0089649f9000153798b";"BRAC1_vertAA_1st0";0;92;460,949999993318;"L";1;0;NA;"L";"red";"black";"magnit";4;0;1;1;0;0;1;"23";"male";"Not at all";"Bachelor degree";"right-handed";"Hungary";"Hungary"
"5c02a0089649f9000153798b";"BRAC1_vertAA_1st0";0;93;835,800000000745;"L";1;0;NA;"L";"blue";"black";"parity";8;0;1;0;1;0;1;"23";"male";"Not at all";"Bachelor degree";"right-handed";"Hungary";"Hungary"
"5c02a0089649f9000153798b";"BRAC1_vertAA_1st0";0;94;1753,1999999992;"A";1;0;NA;"A";"blue";"black";"parity";3;0;0;1;0;0;1;"23";"male";"Not at all";"Bachelor degree";"right-handed";"Hungary";"Hungary"
"5c02a0089649f9000153798b";"BRAC1_vertAA_1st0";0;95;635,264999997162;"A";1;0;NA;"A";"red";"black";"parity";9;0;0;0;1;0;1;"23";"male";"Not at all";"Bachelor degree";"right-handed";"Hungary";"Hungary"
"5c02a0089649f9000153798b";"BRAC1_vertAA_1st0";1;0;581,624999998894;"A";1;0;NA;"A";"blue";"black";"magnit";9;300;99;99;99;99;1;"23";"male";"Not at all";"Bachelor degree";"right-handed";"Hungary";"Hungary"
"5c02a0089649f9000153798b";"BRAC1_vertAA_1st0";1;1;710,044999999809;"L";1;1;NA;"A";"red";"black";"parity";1;300;1;0;1;0;1;"23";"male";"Not at all";"Bachelor degree";"right-handed";"Hungary";"Hungary"
"5c02a0089649f9000153798b";"BRAC1_vertAA_1st0";1;2;423,905000003288;"A";1;0;NA;"A";"red";"black";"magnit";9;300;1;0;0;1;1;"23";"male";"Not at all";"Bachelor degree";"right-handed";"Hungary";"Hungary"
"5c02a0089649f9000153798b";"BRAC1_vertAA_1st0";1;3;778,200000000652;"L";1;0;NA;"L";"blue";"black";"parity";8;300;1;1;1;0;1;"23";"male";"Not at all";"Bachelor degree";"right-handed";"Hungary";"Hungary"
"5c02a0089649f9000153798b";"BRAC1_vertAA_1st0";1;4;305,860000000393;"A";1;0;NA;"A";"blue";"black";"magnit";7;300;1;1;0;0;1;"23";"male";"Not at all";"Bachelor degree";"right-handed";"Hungary";"Hungary"
"5c02a0089649f9000153798b";"BRAC1_vertAA_1st0";1;5;605,539999996836;"L";1;0;NA;"L";"red";"black";"magnit";3;300;0;1;1;0;1;"23";"male";"Not at all";"Bachelor degree";"right-handed";"Hungary";"Hungary"
"5c02a0089649f9000153798b";"BRAC1_vertAA_1st0";1;6;1170,95999999583;"A";1;0;NA;"A";"red";"black";"parity";7;300;1;1;0;0;1;"23";"male";"Not at all";"Bachelor degree";"right-handed";"Hungary";"Hungary"
"5c02a0089649f9000153798b";"BRAC1_vertAA_1st0";1;7;560,86000000505;"A";1;0;NA;"A";"blue";"black";"magnit";8;300;1;0;1;0;1;"23";"male";"Not at all";"Bachelor degree";"right-handed";"Hungary";"Hungary"
"5c02a0089649f9000153798b";"BRAC1_vertAA_1st0";1;8;785,105000002659;"L";1;0;NA;"L";"blue";"black";"parity";4;300;1;1;0;0;1;"23";"male";"Not at all";"Bachelor degree";"right-handed";"Hungary";"Hungary"
"5c02a0089649f9000153798b";"BRAC1_vertAA_1st0";1;9;1134,28500000009;"A";1;0;NA;"A";"blue";"black";"parity";3;300;0;1;0;0;1;"23";"male";"Not at all";"Bachelor degree";"right-handed";"Hungary";"Hungary"
"5c02a0089649f9000153798b";"BRAC1_vertAA_1st0";1;10;608,914999997069;"L";1;0;NA;"L";"red";"black";"parity";8;300;0;1;1;0;1;"23";"male";"Not at all";"Bachelor degree";"right-handed";"Hungary";"Hungary"
"5c02a0089649f9000153798b";"BRAC1_vertAA_1st0";1;11;666,134999999485;"L";1;0;NA;"L";"red";"black";"parity";2;300;0;0;0;0;1;"23";"male";"Not at all";"Bachelor degree";"right-handed";"Hungary";"Hungary"
"5c02a0089649f9000153798b";"BRAC1_vertAA_1st0";1;12;564,534999997704;"A";1;0;NA;"A";"blue";"black";"parity";3;300;0;1;1;0;1;"23";"male";"Not at all";"Bachelor degree";"right-handed";"Hungary";"Hungary"
"5c02a0089649f9000153798b";"BRAC1_vertAA_1st0";1;13;421,60000000149;"A";1;0;NA;"A";"red";"black";"magnit";6;300;1;0;1;0;1;"23";"male";"Not at all";"Bachelor degree";"right-handed";"Hungary";"Hungary"
"5c02a0089649f9000153798b";"BRAC1_vertAA_1st0";1;14;445,545000002312;"L";1;0;NA;"L";"red";"black";"magnit";2;300;0;1;0;0;1;"23";"male";"Not at all";"Bachelor degree";"right-handed";"Hungary";"Hungary"
"5c02a0089649f9000153798b";"BRAC1_vertAA_1st0";1;15;570,570000003499;"A";1;0;NA;"A";"red";"black";"magnit";8;300;0;1;0;0;1;"23";"male";"Not at all";"Bachelor degree";"right-handed";"Hungary";"Hungary"
"5c02a0089649f9000153798b";"BRAC1_vertAA_1st0";1;16;665,345000001253;"L";1;0;NA;"L";"blue";"black";"magnit";4;300;0;1;1;0;1;"23";"male";"Not at all";"Bachelor degree";"right-handed";"Hungary";"Hungary"
"5c02a0089649f9000153798b";"BRAC1_vertAA_1st0";1;17;1071,58000000345;"L";1;0;NA;"L";"blue";"black";"parity";2;300;1;0;0;0;1;"23";"male";"Not at all";"Bachelor degree";"right-handed";"Hungary";"Hungary"
"5c02a0089649f9000153798b";"BRAC1_vertAA_1st0";1;18;604,019999998854;"L";1;0;NA;"L";"red";"black";"parity";4;300;0;0;1;0;1;"23";"male";"Not at all";"Bachelor degree";"right-handed";"Hungary";"Hungary"
"5c02a0089649f9000153798b";"BRAC1_vertAA_1st0";1;19;1375,16499999765;"L";1;0;NA;"L";"blue";"black";"magnit";3;300;1;0;1;0;1;"23";"male";"Not at all";"Bachelor degree";"right-handed";"Hungary";"Hungary"
"5c02a0089649f9000153798b";"BRAC1_vertAA_1st0";1;20;1561,20999999985;"L";1;0;NA;"L";"blue";"black";"parity";2;300;1;0;0;0;1;"23";"male";"Not at all";"Bachelor degree";"right-handed";"Hungary";"Hungary"
"5c02a0089649f9000153798b";"BRAC1_vertAA_1st0";1;21;528,830000002927;"A";1;0;NA;"A";"red";"black";"magnit";9;300;1;1;1;0;1;"23";"male";"Not at all";"Bachelor degree";"right-handed";"Hungary";"Hungary"
"5c02a0089649f9000153798b";"BRAC1_vertAA_1st0";1;22;1494,96999999974;"L";1;1;NA;"A";"red";"black";"parity";3;300;1;0;0;0;1;"23";"male";"Not at all";"Bachelor degree";"right-handed";"Hungary";"Hungary"
"5c02a0089649f9000153798b";"BRAC1_vertAA_1st0";1;23;835,405000005267;"L";1;0;NA;"L";"blue";"black";"magnit";4;300;1;1;1;1;1;"23";"male";"Not at all";"Bachelor degree";"right-handed";"Hungary";"Hungary"
"5c02a0089649f9000153798b";"BRAC1_vertAA_1st0";1;24;441,780000001017;"L";1;0;NA;"L";"red";"black";"magnit";3;300;0;0;1;0;1;"23";"male";"Not at all";"Bachelor degree";"right-handed";"Hungary";"Hungary"
"5c02a0089649f9000153798b";"BRAC1_vertAA_1st0";1;25;536,400000004505;"L";1;0;NA;"L";"red";"black";"magnit";2;300;0;0;0;0;1;"23";"male";"Not at all";"Bachelor degree";"right-handed";"Hungary";"Hungary"
"5c02a0089649f9000153798b";"BRAC1_vertAA_1st0";1;26;675,25499999465;"L";1;0;NA;"L";"red";"black";"parity";4;300;1;0;0;0;1;"23";"male";"Not at all";"Bachelor degree";"right-handed";"Hungary";"Hungary"
"5c02a0089649f9000153798b";"BRAC1_vertAA_1st0";1;27;510,330000004615;"L";1;0;NA;"L";"blue";"black";"magnit";3;300;1;0;1;0;1;"23";"male";"Not at all";"Bachelor degree";"right-handed";"Hungary";"Hungary"
"5c02a0089649f9000153798b";"BRAC1_vertAA_1st0";1;28;417,114999996556;"A";1;0;NA;"A";"blue";"black";"magnit";6;300;0;1;0;0;1;"23";"male";"Not at all";"Bachelor degree";"right-handed";"Hungary";"Hungary"
"5c02a0089649f9000153798b";"BRAC1_vertAA_1st0";1;29;772,779999999329;"A";1;0;NA;"A";"blue";"black";"parity";3;300;1;0;0;0;1;"23";"male";"Not at all";"Bachelor degree";"right-handed";"Hungary";"Hungary"
"5c02a0089649f9000153798b";"BRAC1_vertAA_1st0";1;30;649,434999999357;"A";1;0;NA;"A";"blue";"black";"parity";7;300;0;0;0;0;1;"23";"male";"Not at all";"Bachelor degree";"right-handed";"Hungary";"Hungary"
"5c02a0089649f9000153798b";"BRAC1_vertAA_1st0";1;31;784,909999994852;"A";1;0;NA;"A";"red";"black";"parity";1;300;0;0;1;0;1;"23";"male";"Not at all";"Bachelor degree";"right-handed";"Hungary";"Hungary"
"5c02a0089649f9000153798b";"BRAC1_vertAA_1st0";1;32;453,02499999525;"A";1;0;NA;"A";"blue";"black";"magnit";8;300;1;0;1;0;1;"23";"male";"Not at all";"Bachelor degree";"right-handed";"Hungary";"Hungary"
"5c02a0089649f9000153798b";"BRAC1_vertAA_1st0";1;33;1278,91000000091;"L";1;0;NA;"L";"blue";"black";"magnit";4;300;0;1;0;0;1;"23";"male";"Not at all";"Bachelor degree";"right-handed";"Hungary";"Hungary"
"5c02a0089649f9000153798b";"BRAC1_vertAA_1st0";1;34;835,605000000214;"L";1;0;NA;"L";"blue";"black";"parity";8;300;1;0;0;0;1;"23";"male";"Not at all";"Bachelor degree";"right-handed";"Hungary";"Hungary"
"5c02a0089649f9000153798b";"BRAC1_vertAA_1st0";1;35;455,33499999874;"A";1;0;NA;"A";"red";"black";"magnit";7;300;1;1;1;0;1;"23";"male";"Not at all";"Bachelor degree";"right-handed";"Hungary";"Hungary"
"5c02a0089649f9000153798b";"BRAC1_vertAA_1st0";1;36;1037,75500000484;"L";1;0;NA;"L";"blue";"black";"parity";2;300;1;1;1;0;1;"23";"male";"Not at all";"Bachelor degree";"right-handed";"Hungary";"Hungary"
"5c02a0089649f9000153798b";"BRAC1_vertAA_1st0";1;37;703,15500000288;"A";1;1;NA;"L";"red";"black";"parity";6;300;0;0;1;0;1;"23";"male";"Not at all";"Bachelor degree";"right-handed";"Hungary";"Hungary"
"5c02a0089649f9000153798b";"BRAC1_vertAA_1st0";1;38;418,644999997923;"L";1;0;NA;"L";"red";"black";"magnit";2;300;1;0;0;1;1;"23";"male";"Not at all";"Bachelor degree";"right-handed";"Hungary";"Hungary"
"5c02a0089649f9000153798b";"BRAC1_vertAA_1st0";1;39;385,290000005625;"A";1;0;NA;"A";"red";"black";"magnit";9;300;0;1;0;0;1;"23";"male";"Not at all";"Bachelor degree";"right-handed";"Hungary";"Hungary"
"5c02a0089649f9000153798b";"BRAC1_vertAA_1st0";1;40;488,035000002128;"L";1;0;NA;"L";"blue";"black";"magnit";2;300;0;1;1;0;1;"23";"male";"Not at all";"Bachelor degree";"right-handed";"Hungary";"Hungary"
"5c02a0089649f9000153798b";"BRAC1_vertAA_1st0";1;41;432,619999999588;"A";1;0;NA;"A";"red";"black";"magnit";7;300;0;1;1;0;1;"23";"male";"Not at all";"Bachelor degree";"right-handed";"Hungary";"Hungary"
"5c02a0089649f9000153798b";"BRAC1_vertAA_1st0";1;42;596,029999993334;"L";1;0;NA;"L";"blue";"black";"magnit";1;300;0;1;1;0;1;"23";"male";"Not at all";"Bachelor degree";"right-handed";"Hungary";"Hungary"
"5c02a0089649f9000153798b";"BRAC1_vertAA_1st0";1;43;515,954999995301;"A";1;1;NA;"L";"blue";"black";"magnit";2;300;0;0;0;0;1;"23";"male";"Not at all";"Bachelor degree";"right-handed";"Hungary";"Hungary"
"5c02a0089649f9000153798b";"BRAC1_vertAA_1st0";1;44;2093,66500000033;"L";1;0;NA;"L";"red";"black";"parity";8;300;1;0;1;1;1;"23";"male";"Not at all";"Bachelor degree";"right-handed";"Hungary";"Hungary"
"5c02a0089649f9000153798b";"BRAC1_vertAA_1st0";1;45;468,620000006922;"A";1;0;NA;"A";"blue";"black";"magnit";9;300;1;1;1;0;1;"23";"male";"Not at all";"Bachelor degree";"right-handed";"Hungary";"Hungary"
"5c02a0089649f9000153798b";"BRAC1_vertAA_1st0";1;46;1218,71999999712;"A";1;0;NA;"A";"red";"black";"magnit";7;300;0;0;1;0;1;"23";"male";"Not at all";"Bachelor degree";"right-handed";"Hungary";"Hungary"
"5c02a0089649f9000153798b";"BRAC1_vertAA_1st0";1;47;766,040000002249;"L";1;0;NA;"L";"blue";"black";"parity";6;300;1;1;1;0;1;"23";"male";"Not at all";"Bachelor degree";"right-handed";"Hungary";"Hungary"
"5c02a0089649f9000153798b";"BRAC1_vertAA_1st0";1;48;21,7350000020815;"A";1;1;NA;"L";"blue";"black";"magnit";2;300;1;0;0;0;1;"23";"male";"Not at all";"Bachelor degree";"right-handed";"Hungary";"Hungary"
"5c02a0089649f9000153798b";"BRAC1_vertAA_1st0";1;49;852,525000002061;"L";1;0;NA;"L";"blue";"black";"parity";6;300;1;0;0;1;1;"23";"male";"Not at all";"Bachelor degree";"right-handed";"Hungary";"Hungary"
"5c02a0089649f9000153798b";"BRAC1_vertAA_1st0";1;50;515,229999997246;"L";1;0;NA;"L";"red";"black";"magnit";4;300;1;0;1;0;1;"23";"male";"Not at all";"Bachelor degree";"right-handed";"Hungary";"Hungary"
"5c02a0089649f9000153798b";"BRAC1_vertAA_1st0";1;51;812,084999997751;"A";1;0;NA;"A";"red";"black";"parity";9;300;1;1;0;0;1;"23";"male";"Not at all";"Bachelor degree";"right-handed";"Hungary";"Hungary"
"5c02a0089649f9000153798b";"BRAC1_vertAA_1st0";1;52;923,740000005637;"A";1;0;NA;"A";"blue";"black";"parity";1;300;0;0;1;0;1;"23";"male";"Not at all";"Bachelor degree";"right-handed";"Hungary";"Hungary"
"5c02a0089649f9000153798b";"BRAC1_vertAA_1st0";1;53;469,46999999648;"A";1;0;NA;"A";"blue";"black";"magnit";9;300;1;0;0;0;1;"23";"male";"Not at all";"Bachelor degree";"right-handed";"Hungary";"Hungary"
"5c02a0089649f9000153798b";"BRAC1_vertAA_1st0";1;54;1041,89999999653;"L";1;0;NA;"L";"red";"black";"parity";8;300;1;1;1;0;1;"23";"male";"Not at all";"Bachelor degree";"right-handed";"Hungary";"Hungary"
"5c02a0089649f9000153798b";"BRAC1_vertAA_1st0";1;55;614,164999999106;"A";1;0;NA;"A";"blue";"black";"parity";9;300;0;1;1;0;1;"23";"male";"Not at all";"Bachelor degree";"right-handed";"Hungary";"Hungary"
"5c02a0089649f9000153798b";"BRAC1_vertAA_1st0";1;56;1754,75500000175;"L";1;0;NA;"L";"red";"black";"parity";4;300;0;1;1;0;1;"23";"male";"Not at all";"Bachelor degree";"right-handed";"Hungary";"Hungary"
"5c02a0089649f9000153798b";"BRAC1_vertAA_1st0";1;57;412,489999995101;"A";1;0;NA;"A";"red";"black";"magnit";6;300;1;1;0;0;1;"23";"male";"Not at all";"Bachelor degree";"right-handed";"Hungary";"Hungary"
"5c02a0089649f9000153798b";"BRAC1_vertAA_1st0";1;58;467,680000001565;"L";1;0;NA;"L";"red";"black";"magnit";4;300;0;1;0;0;1;"23";"male";"Not at all";"Bachelor degree";"right-handed";"Hungary";"Hungary"
"5c02a0089649f9000153798b";"BRAC1_vertAA_1st0";1;59;2501,09999999998;NA;NA;1;1;"L";"blue";"black";"magnit";1;300;0;0;1;0;1;"23";"male";"Not at all";"Bachelor degree";"right-handed";"Hungary";"Hungary"
"5c02a0089649f9000153798b";"BRAC1_vertAA_1st0";1;60;442,150000002468;"L";1;1;NA;"A";"blue";"black";"magnit";7;300;0;1;0;1;1;"23";"male";"Not at all";"Bachelor degree";"right-handed";"Hungary";"Hungary"
"5c02a0089649f9000153798b";"BRAC1_vertAA_1st0";1;61;461,815000002272;"L";1;0;NA;"L";"red";"black";"magnit";4;300;0;1;1;1;1;"23";"male";"Not at all";"Bachelor degree";"right-handed";"Hungary";"Hungary"
"5c02a0089649f9000153798b";"BRAC1_vertAA_1st0";1;62;427,599999995437;"A";1;0;NA;"A";"blue";"black";"magnit";7;300;0;1;1;0;1;"23";"male";"Not at all";"Bachelor degree";"right-handed";"Hungary";"Hungary"
"5c02a0089649f9000153798b";"BRAC1_vertAA_1st0";1;63;658,649999997579;"A";1;0;NA;"A";"red";"black";"parity";1;300;1;0;1;0;1;"23";"male";"Not at all";"Bachelor degree";"right-handed";"Hungary";"Hungary"
"5c02a0089649f9000153798b";"BRAC1_vertAA_1st0";1;64;496,984999997891;"L";1;0;NA;"L";"red";"black";"magnit";3;300;1;1;0;0;1;"23";"male";"Not at all";"Bachelor degree";"right-handed";"Hungary";"Hungary"
"5c02a0089649f9000153798b";"BRAC1_vertAA_1st0";1;65;910,185000000522;"L";1;0;NA;"L";"red";"black";"parity";6;300;1;0;0;0;1;"23";"male";"Not at all";"Bachelor degree";"right-handed";"Hungary";"Hungary"
"5c02a0089649f9000153798b";"BRAC1_vertAA_1st0";1;66;567,195000003325;"A";1;0;NA;"A";"red";"black";"parity";3;300;0;1;0;0;1;"23";"male";"Not at all";"Bachelor degree";"right-handed";"Hungary";"Hungary"
"5c02a0089649f9000153798b";"BRAC1_vertAA_1st0";1;67;447,929999994813;"A";1;0;NA;"A";"red";"black";"magnit";6;300;1;0;0;0;1;"23";"male";"Not at all";"Bachelor degree";"right-handed";"Hungary";"Hungary"
"5c02a0089649f9000153798b";"BRAC1_vertAA_1st0";1;68;71,4900000020862;"L";1;0;NA;"L";"blue";"black";"parity";8;300;1;1;1;0;1;"23";"male";"Not at all";"Bachelor degree";"right-handed";"Hungary";"Hungary"
"5c02a0089649f9000153798b";"BRAC1_vertAA_1st0";1;69;629,794999993523;"L";1;0;NA;"L";"red";"black";"parity";2;300;0;0;1;0;1;"23";"male";"Not at all";"Bachelor degree";"right-handed";"Hungary";"Hungary"
"5c02a0089649f9000153798b";"BRAC1_vertAA_1st0";1;70;417,155000002822;"A";1;0;NA;"A";"red";"black";"magnit";8;300;1;1;0;0;1;"23";"male";"Not at all";"Bachelor degree";"right-handed";"Hungary";"Hungary"
"5c02a0089649f9000153798b";"BRAC1_vertAA_1st0";1;71;680,529999997816;"L";1;0;NA;"L";"red";"black";"parity";2;300;1;1;0;0;1;"23";"male";"Not at all";"Bachelor degree";"right-handed";"Hungary";"Hungary"
"5c02a0089649f9000153798b";"BRAC1_vertAA_1st0";1;72;541,969999998342;"L";1;0;NA;"L";"blue";"black";"magnit";3;300;1;0;1;0;1;"23";"male";"Not at all";"Bachelor degree";"right-handed";"Hungary";"Hungary"
"5c02a0089649f9000153798b";"BRAC1_vertAA_1st0";1;73;477,32000000542;"A";1;1;NA;"L";"blue";"black";"magnit";1;300;0;0;0;0;1;"23";"male";"Not at all";"Bachelor degree";"right-handed";"Hungary";"Hungary"
"5c02a0089649f9000153798b";"BRAC1_vertAA_1st0";1;74;1731,03000000259;"A";1;0;NA;"A";"blue";"black";"parity";7;300;1;1;0;1;1;"23";"male";"Not at all";"Bachelor degree";"right-handed";"Hungary";"Hungary"
"5c02a0089649f9000153798b";"BRAC1_vertAA_1st0";1;75;1094,27000000142;"L";1;0;NA;"L";"red";"black";"parity";6;300;0;1;1;0;1;"23";"male";"Not at all";"Bachelor degree";"right-handed";"Hungary";"Hungary"
"5c02a0089649f9000153798b";"BRAC1_vertAA_1st0";1;76;674,790000004461;"A";1;0;NA;"A";"blue";"black";"parity";1;300;0;1;1;0;1;"23";"male";"Not at all";"Bachelor degree";"right-handed";"Hungary";"Hungary"
"5c02a0089649f9000153798b";"BRAC1_vertAA_1st0";1;77;1684,39499999653;"A";1;0;NA;"A";"red";"black";"parity";9;300;0;0;1;0;1;"23";"male";"Not at all";"Bachelor degree";"right-handed";"Hungary";"Hungary"
"5c02a0089649f9000153798b";"BRAC1_vertAA_1st0";1;78;678,889999995707;"A";1;0;NA;"A";"red";"black";"parity";7;300;0;0;0;0;1;"23";"male";"Not at all";"Bachelor degree";"right-handed";"Hungary";"Hungary"
"5c02a0089649f9000153798b";"BRAC1_vertAA_1st0";1;79;441,449999998556;"L";1;0;NA;"L";"blue";"black";"parity";4;300;0;1;1;0;1;"23";"male";"Not at all";"Bachelor degree";"right-handed";"Hungary";"Hungary"
"5c02a0089649f9000153798b";"BRAC1_vertAA_1st0";1;80;711,670000004349;"A";1;0;NA;"A";"red";"black";"parity";7;300;0;1;1;0;1;"23";"male";"Not at all";"Bachelor degree";"right-handed";"Hungary";"Hungary"
"5c02a0089649f9000153798b";"BRAC1_vertAA_1st0";1;81;416,174999998533;"L";1;0;NA;"L";"red";"black";"magnit";1;300;1;1;0;0;1;"23";"male";"Not at all";"Bachelor degree";"right-handed";"Hungary";"Hungary"
"5c02a0089649f9000153798b";"BRAC1_vertAA_1st0";1;82;414,299999996671;"A";1;0;NA;"A";"blue";"black";"magnit";6;300;0;1;1;0;1;"23";"male";"Not at all";"Bachelor degree";"right-handed";"Hungary";"Hungary"
"5c02a0089649f9000153798b";"BRAC1_vertAA_1st0";1;83;471,654999993858;"L";1;1;NA;"A";"blue";"black";"parity";7;300;1;0;0;0;1;"23";"male";"Not at all";"Bachelor degree";"right-handed";"Hungary";"Hungary"
"5c02a0089649f9000153798b";"BRAC1_vertAA_1st0";1;84;63,8350000008941;"L";1;1;NA;"A";"blue";"black";"parity";9;300;0;0;0;1;1;"23";"male";"Not at all";"Bachelor degree";"right-handed";"Hungary";"Hungary"
"5c02a0089649f9000153798b";"BRAC1_vertAA_1st0";1;85;292,625000001863;"A";1;0;NA;"A";"red";"black";"parity";3;300;0;0;1;1;1;"23";"male";"Not at all";"Bachelor degree";"right-handed";"Hungary";"Hungary"
"5c02a0089649f9000153798b";"BRAC1_vertAA_1st0";1;86;847,5550000004;"L";1;0;NA;"L";"blue";"black";"parity";6;300;0;1;1;0;1;"23";"male";"Not at all";"Bachelor degree";"right-handed";"Hungary";"Hungary"
"5c02a0089649f9000153798b";"BRAC1_vertAA_1st0";1;87;573,879999996279;"A";1;0;NA;"A";"blue";"black";"parity";1;300;0;1;0;0;1;"23";"male";"Not at all";"Bachelor degree";"right-handed";"Hungary";"Hungary"
"5c02a0089649f9000153798b";"BRAC1_vertAA_1st0";1;88;468,180000003427;"L";1;0;NA;"L";"blue";"black";"parity";4;300;0;1;0;0;1;"23";"male";"Not at all";"Bachelor degree";"right-handed";"Hungary";"Hungary"
"5c02a0089649f9000153798b";"BRAC1_vertAA_1st0";1;89;634,564999993076;"A";1;0;NA;"A";"red";"black";"magnit";8;300;1;1;1;0;1;"23";"male";"Not at all";"Bachelor degree";"right-handed";"Hungary";"Hungary"
"5c02a0089649f9000153798b";"BRAC1_vertAA_1st0";1;90;545,165000003297;"A";1;0;NA;"A";"red";"black";"parity";9;300;1;0;0;0;1;"23";"male";"Not at all";"Bachelor degree";"right-handed";"Hungary";"Hungary"
"5c02a0089649f9000153798b";"BRAC1_vertAA_1st0";1;91;414,93499999342;"L";1;0;NA;"L";"red";"black";"magnit";1;300;1;1;0;0;1;"23";"male";"Not at all";"Bachelor degree";"right-handed";"Hungary";"Hungary"
"5c02a0089649f9000153798b";"BRAC1_vertAA_1st0";1;92;413,554999999236;"A";1;0;NA;"A";"blue";"black";"magnit";6;300;0;1;1;0;1;"23";"male";"Not at all";"Bachelor degree";"right-handed";"Hungary";"Hungary"
"5c02a0089649f9000153798b";"BRAC1_vertAA_1st0";1;93;386,76499999559;"L";1;0;NA;"L";"red";"black";"magnit";1;300;0;1;1;0;1;"23";"male";"Not at all";"Bachelor degree";"right-handed";"Hungary";"Hungary"
"5c02a0089649f9000153798b";"BRAC1_vertAA_1st0";1;94;1322,11000000103;"A";1;0;NA;"A";"blue";"black";"parity";9;300;1;1;1;0;1;"23";"male";"Not at all";"Bachelor degree";"right-handed";"Hungary";"Hungary"
"5c02a0089649f9000153798b";"BRAC1_vertAA_1st0";1;95;423,029999998049;"A";1;0;NA;"A";"blue";"black";"magnit";8;300;1;0;0;0;1;"23";"male";"Not at all";"Bachelor degree";"right-handed";"Hungary";"Hungary"
"5c02a0089649f9000153798b";"BRAC1_vertAA_1st0";2;0;924,07000000088;"A";1;0;NA;"A";"blue";"black";"parity";7;0;99;99;99;99;1;"23";"male";"Not at all";"Bachelor degree";"right-handed";"Hungary";"Hungary"
"5c02a0089649f9000153798b";"BRAC1_vertAA_1st0";2;1;597,844999996596;"A";1;0;NA;"A";"blue";"black";"parity";3;0;0;0;0;0;1;"23";"male";"Not at all";"Bachelor degree";"right-handed";"Hungary";"Hungary"
"5c02a0089649f9000153798b";"BRAC1_vertAA_1st0";2;2;146,795000000624;"A";1;1;NA;"L";"blue";"black";"parity";2;0;0;1;0;0;1;"23";"male";"Not at all";"Bachelor degree";"right-handed";"Hungary";"Hungary"
"5c02a0089649f9000153798b";"BRAC1_vertAA_1st0";2;3;400,604999995325;"A";1;0;NA;"A";"red";"black";"magnit";9;0;1;1;1;1;1;"23";"male";"Not at all";"Bachelor degree";"right-handed";"Hungary";"Hungary"
"5c02a0089649f9000153798b";"BRAC1_vertAA_1st0";2;4;456,439999994473;"A";1;0;NA;"A";"red";"black";"magnit";8;0;0;0;0;0;1;"23";"male";"Not at all";"Bachelor degree";"right-handed";"Hungary";"Hungary"
"5c02a0089649f9000153798b";"BRAC1_vertAA_1st0";2;5;531,605000003823;"L";1;0;NA;"L";"red";"black";"magnit";3;0;0;1;0;0;1;"23";"male";"Not at all";"Bachelor degree";"right-handed";"Hungary";"Hungary"
"5c02a0089649f9000153798b";"BRAC1_vertAA_1st0";2;6;774,170000004233;"L";1;0;NA;"L";"blue";"black";"magnit";4;0;0;0;1;0;1;"23";"male";"Not at all";"Bachelor degree";"right-handed";"Hungary";"Hungary"
"5c02a0089649f9000153798b";"BRAC1_vertAA_1st0";2;7;571,120000000577;"A";1;0;NA;"A";"blue";"black";"magnit";7;0;0;1;0;0;1;"23";"male";"Not at all";"Bachelor degree";"right-handed";"Hungary";"Hungary"
"5c02a0089649f9000153798b";"BRAC1_vertAA_1st0";2;8;685,855000003474;"A";1;0;NA;"A";"blue";"black";"parity";1;0;1;0;0;0;1;"23";"male";"Not at all";"Bachelor degree";"right-handed";"Hungary";"Hungary"
"5c02a0089649f9000153798b";"BRAC1_vertAA_1st0";2;9;487,874999998952;"L";1;0;NA;"L";"red";"black";"parity";6;0;0;1;1;0;1;"23";"male";"Not at all";"Bachelor degree";"right-handed";"Hungary";"Hungary"
"5c02a0089649f9000153798b";"BRAC1_vertAA_1st0";2;10;1145,30999999994;"A";1;1;NA;"L";"blue";"black";"parity";8;0;0;0;1;0;1;"23";"male";"Not at all";"Bachelor degree";"right-handed";"Hungary";"Hungary"
"5c02a0089649f9000153798b";"BRAC1_vertAA_1st0";2;11;730,584999997634;"L";1;0;NA;"L";"red";"black";"parity";4;0;0;0;1;1;1;"23";"male";"Not at all";"Bachelor degree";"right-handed";"Hungary";"Hungary"
"5c02a0089649f9000153798b";"BRAC1_vertAA_1st0";2;12;557,270000004675;"A";1;0;NA;"A";"blue";"black";"magnit";6;0;1;1;1;0;1;"23";"male";"Not at all";"Bachelor degree";"right-handed";"Hungary";"Hungary"
"5c02a0089649f9000153798b";"BRAC1_vertAA_1st0";2;13;719,360000002896;"L";1;0;NA;"L";"blue";"black";"magnit";4;0;0;1;0;0;1;"23";"male";"Not at all";"Bachelor degree";"right-handed";"Hungary";"Hungary"
"5c02a0089649f9000153798b";"BRAC1_vertAA_1st0";2;14;712,565000001574;"A";1;0;NA;"A";"red";"black";"parity";1;0;1;1;1;0;1;"23";"male";"Not at all";"Bachelor degree";"right-handed";"Hungary";"Hungary"
"5c02a0089649f9000153798b";"BRAC1_vertAA_1st0";2;15;761,070000000531;"L";1;0;NA;"L";"red";"black";"parity";6;0;0;1;0;0;1;"23";"male";"Not at all";"Bachelor degree";"right-handed";"Hungary";"Hungary"
"5c02a0089649f9000153798b";"BRAC1_vertAA_1st0";2;16;1101,11499999766;"L";1;0;NA;"L";"red";"black";"magnit";4;0;1;0;0;0;1;"23";"male";"Not at all";"Bachelor degree";"right-handed";"Hungary";"Hungary"
"5c02a0089649f9000153798b";"BRAC1_vertAA_1st0";2;17;1574,93999999866;"A";1;1;NA;"L";"blue";"black";"magnit";2;0;0;0;1;0;1;"23";"male";"Not at all";"Bachelor degree";"right-handed";"Hungary";"Hungary"
"5c02a0089649f9000153798b";"BRAC1_vertAA_1st0";2;18;628,660000002244;"A";1;0;NA;"A";"blue";"black";"magnit";8;0;0;1;0;1;1;"23";"male";"Not at all";"Bachelor degree";"right-handed";"Hungary";"Hungary"
"5c02a0089649f9000153798b";"BRAC1_vertAA_1st0";2;19;541,164999995148;"A";1;0;NA;"A";"blue";"black";"magnit";6;0;0;0;0;0;1;"23";"male";"Not at all";"Bachelor degree";"right-handed";"Hungary";"Hungary"
"5c02a0089649f9000153798b";"BRAC1_vertAA_1st0";2;20;845,560000001569;"A";1;0;NA;"A";"red";"black";"parity";7;0;1;0;1;0;1;"23";"male";"Not at all";"Bachelor degree";"right-handed";"Hungary";"Hungary"
"5c02a0089649f9000153798b";"BRAC1_vertAA_1st0";2;21;929,140000000247;"L";1;0;NA;"L";"blue";"black";"parity";6;0;0;1;1;0;1;"23";"male";"Not at all";"Bachelor degree";"right-handed";"Hungary";"Hungary"
"5c02a0089649f9000153798b";"BRAC1_vertAA_1st0";2;22;482,624999996857;"A";1;0;NA;"A";"blue";"black";"magnit";9;0;1;1;0;0;1;"23";"male";"Not at all";"Bachelor degree";"right-handed";"Hungary";"Hungary"
"5c02a0089649f9000153798b";"BRAC1_vertAA_1st0";2;23;182,539999994449;"L";1;0;NA;"L";"blue";"black";"parity";4;0;1;1;0;0;1;"23";"male";"Not at all";"Bachelor degree";"right-handed";"Hungary";"Hungary"
"5c02a0089649f9000153798b";"BRAC1_vertAA_1st0";2;24;704,935000001569;"A";1;0;NA;"A";"red";"black";"parity";9;0;0;1;1;0;1;"23";"male";"Not at all";"Bachelor degree";"right-handed";"Hungary";"Hungary"
"5c02a0089649f9000153798b";"BRAC1_vertAA_1st0";2;25;385,775000002468;"A";1;0;NA;"A";"red";"black";"magnit";8;0;1;0;0;0;1;"23";"male";"Not at all";"Bachelor degree";"right-handed";"Hungary";"Hungary"
"5c02a0089649f9000153798b";"BRAC1_vertAA_1st0";2;26;321,24499999918;"A";1;1;NA;"L";"red";"black";"magnit";2;0;0;1;0;0;1;"23";"male";"Not at all";"Bachelor degree";"right-handed";"Hungary";"Hungary"
"5c02a0089649f9000153798b";"BRAC1_vertAA_1st0";2;27;601,015000000247;"L";1;0;NA;"L";"red";"black";"magnit";4;0;0;0;0;1;1;"23";"male";"Not at all";"Bachelor degree";"right-handed";"Hungary";"Hungary"
"5c02a0089649f9000153798b";"BRAC1_vertAA_1st0";2;28;534,015000004671;"L";1;0;NA;"L";"blue";"black";"magnit";3;0;0;0;1;0;1;"23";"male";"Not at all";"Bachelor degree";"right-handed";"Hungary";"Hungary"
"5c02a0089649f9000153798b";"BRAC1_vertAA_1st0";2;29;384,549999995157;"L";1;0;NA;"L";"red";"black";"parity";8;0;1;0;1;0;1;"23";"male";"Not at all";"Bachelor degree";"right-handed";"Hungary";"Hungary"
"5c02a0089649f9000153798b";"BRAC1_vertAA_1st0";2;30;543,440000001341;"L";1;0;NA;"L";"red";"black";"parity";2;0;0;0;0;0;1;"23";"male";"Not at all";"Bachelor degree";"right-handed";"Hungary";"Hungary"
"5c02a0089649f9000153798b";"BRAC1_vertAA_1st0";2;31;594,010000000708;"L";1;0;NA;"L";"red";"black";"parity";8;0;0;0;0;0;1;"23";"male";"Not at all";"Bachelor degree";"right-handed";"Hungary";"Hungary"
"5c02a0089649f9000153798b";"BRAC1_vertAA_1st0";2;32;102,829999996116;"A";1;0;NA;"A";"red";"black";"magnit";9;0;1;1;0;0;1;"23";"male";"Not at all";"Bachelor degree";"right-handed";"Hungary";"Hungary"
"5c02a0089649f9000153798b";"BRAC1_vertAA_1st0";2;33;674,009999995236;"L";1;0;NA;"L";"red";"black";"parity";4;0;1;1;0;0;1;"23";"male";"Not at all";"Bachelor degree";"right-handed";"Hungary";"Hungary"
"5c02a0089649f9000153798b";"BRAC1_vertAA_1st0";2;34;440,455000003567;"L";1;1;NA;"A";"red";"black";"parity";3;0;0;1;0;0;1;"23";"male";"Not at all";"Bachelor degree";"right-handed";"Hungary";"Hungary"
"5c02a0089649f9000153798b";"BRAC1_vertAA_1st0";2;35;1511,74000000185;"L";1;0;NA;"L";"red";"black";"parity";6;0;0;1;0;1;1;"23";"male";"Not at all";"Bachelor degree";"right-handed";"Hungary";"Hungary"
"5c02a0089649f9000153798b";"BRAC1_vertAA_1st0";2;36;600,660000003641;"A";1;0;NA;"A";"blue";"black";"parity";1;0;0;1;1;0;1;"23";"male";"Not at all";"Bachelor degree";"right-handed";"Hungary";"Hungary"
"5c02a0089649f9000153798b";"BRAC1_vertAA_1st0";2;37;210,00500000082;"A";1;0;NA;"A";"red";"black";"magnit";6;0;1;0;1;0;1;"23";"male";"Not at all";"Bachelor degree";"right-handed";"Hungary";"Hungary"
"5c02a0089649f9000153798b";"BRAC1_vertAA_1st0";2;38;246,114999994519;"L";1;0;NA;"L";"red";"black";"parity";2;0;1;1;0;0;1;"23";"male";"Not at all";"Bachelor degree";"right-handed";"Hungary";"Hungary"
"5c02a0089649f9000153798b";"BRAC1_vertAA_1st0";2;39;35,6550000068964;"L";1;1;NA;"A";"blue";"black";"parity";9;0;0;1;1;0;1;"23";"male";"Not at all";"Bachelor degree";"right-handed";"Hungary";"Hungary"
"5c02a0089649f9000153798b";"BRAC1_vertAA_1st0";2;40;42,780000003404;"A";1;1;NA;"L";"blue";"black";"magnit";4;0;1;1;0;1;1;"23";"male";"Not at all";"Bachelor degree";"right-handed";"Hungary";"Hungary"
"5c02a0089649f9000153798b";"BRAC1_vertAA_1st0";2;41;430,885000001639;"A";1;0;NA;"A";"blue";"black";"magnit";8;0;0;1;0;1;1;"23";"male";"Not at all";"Bachelor degree";"right-handed";"Hungary";"Hungary"
"5c02a0089649f9000153798b";"BRAC1_vertAA_1st0";2;42;443,390000000363;"A";1;0;NA;"A";"red";"black";"parity";9;0;1;0;1;0;1;"23";"male";"Not at all";"Bachelor degree";"right-handed";"Hungary";"Hungary"
"5c02a0089649f9000153798b";"BRAC1_vertAA_1st0";2;43;201,000000000931;"A";1;0;NA;"A";"blue";"black";"parity";7;0;0;0;1;0;1;"23";"male";"Not at all";"Bachelor degree";"right-handed";"Hungary";"Hungary"
"5c02a0089649f9000153798b";"BRAC1_vertAA_1st0";2;44;93,6850000071572;"A";1;1;NA;"L";"blue";"black";"magnit";2;0;1;1;0;0;1;"23";"male";"Not at all";"Bachelor degree";"right-handed";"Hungary";"Hungary"
"5c02a0089649f9000153798b";"BRAC1_vertAA_1st0";2;45;537,079999994487;"L";1;0;NA;"L";"red";"black";"magnit";3;0;0;0;1;1;1;"23";"male";"Not at all";"Bachelor degree";"right-handed";"Hungary";"Hungary"
"5c02a0089649f9000153798b";"BRAC1_vertAA_1st0";2;46;795,599999997648;"L";1;0;NA;"L";"blue";"black";"parity";8;0;1;0;1;0;1;"23";"male";"Not at all";"Bachelor degree";"right-handed";"Hungary";"Hungary"
"5c02a0089649f9000153798b";"BRAC1_vertAA_1st0";2;47;448,720000000205;"L";1;0;NA;"L";"blue";"black";"magnit";3;0;1;0;0;0;1;"23";"male";"Not at all";"Bachelor degree";"right-handed";"Hungary";"Hungary"
"5c02a0089649f9000153798b";"BRAC1_vertAA_1st0";2;48;600,354999995092;"L";1;1;NA;"A";"red";"black";"parity";1;0;1;1;1;0;1;"23";"male";"Not at all";"Bachelor degree";"right-handed";"Hungary";"Hungary"
"5c02a0089649f9000153798b";"BRAC1_vertAA_1st0";2;49;381,280000001425;"A";1;0;NA;"A";"red";"black";"magnit";8;0;1;0;0;1;1;"23";"male";"Not at all";"Bachelor degree";"right-handed";"Hungary";"Hungary"
"5c02a0089649f9000153798b";"BRAC1_vertAA_1st0";2;50;471,094999993569;"A";1;0;NA;"A";"red";"black";"magnit";7;0;0;0;0;0;1;"23";"male";"Not at all";"Bachelor degree";"right-handed";"Hungary";"Hungary"
"5c02a0089649f9000153798b";"BRAC1_vertAA_1st0";2;51;498,915000003763;"A";1;0;NA;"A";"blue";"black";"magnit";9;0;0;0;1;0;1;"23";"male";"Not at all";"Bachelor degree";"right-handed";"Hungary";"Hungary"
"5c02a0089649f9000153798b";"BRAC1_vertAA_1st0";2;52;236,080000002403;"L";1;0;NA;"L";"red";"black";"magnit";1;0;0;1;1;0;1;"23";"male";"Not at all";"Bachelor degree";"right-handed";"Hungary";"Hungary"
"5c02a0089649f9000153798b";"BRAC1_vertAA_1st0";2;53;54,0699999984354;"L";1;1;NA;"A";"red";"black";"magnit";7;0;0;1;0;0;1;"23";"male";"Not at all";"Bachelor degree";"right-handed";"Hungary";"Hungary"
"5c02a0089649f9000153798b";"BRAC1_vertAA_1st0";2;54;64,8599999984726;"A";1;1;NA;"L";"blue";"black";"magnit";1;0;0;1;1;1;1;"23";"male";"Not at all";"Bachelor degree";"right-handed";"Hungary";"Hungary"
"5c02a0089649f9000153798b";"BRAC1_vertAA_1st0";2;55;630,919999995967;"A";1;0;NA;"A";"red";"black";"parity";9;0;1;1;1;1;1;"23";"male";"Not at all";"Bachelor degree";"right-handed";"Hungary";"Hungary"
"5c02a0089649f9000153798b";"BRAC1_vertAA_1st0";2;56;438,374999997905;"L";1;0;NA;"L";"blue";"black";"magnit";3;0;1;1;1;0;1;"23";"male";"Not at all";"Bachelor degree";"right-handed";"Hungary";"Hungary"
"5c02a0089649f9000153798b";"BRAC1_vertAA_1st0";2;57;581,914999995148;"A";1;0;NA;"A";"blue";"black";"parity";1;0;1;1;0;0;1;"23";"male";"Not at all";"Bachelor degree";"right-handed";"Hungary";"Hungary"
"5c02a0089649f9000153798b";"BRAC1_vertAA_1st0";2;58;475,984999997308;"A";1;0;NA;"A";"blue";"black";"magnit";8;0;1;0;0;0;1;"23";"male";"Not at all";"Bachelor degree";"right-handed";"Hungary";"Hungary"
"5c02a0089649f9000153798b";"BRAC1_vertAA_1st0";2;59;476,464999999735;"L";1;0;NA;"L";"red";"black";"magnit";1;0;0;1;1;0;1;"23";"male";"Not at all";"Bachelor degree";"right-handed";"Hungary";"Hungary"
"5c02a0089649f9000153798b";"BRAC1_vertAA_1st0";2;60;738,680000002147;"L";1;0;NA;"L";"red";"black";"magnit";4;0;0;0;0;0;1;"23";"male";"Not at all";"Bachelor degree";"right-handed";"Hungary";"Hungary"
"5c02a0089649f9000153798b";"BRAC1_vertAA_1st0";2;61;217,9049999977;"L";1;0;NA;"L";"blue";"black";"parity";2;0;1;0;1;0;1;"23";"male";"Not at all";"Bachelor degree";"right-handed";"Hungary";"Hungary"
"5c02a0089649f9000153798b";"BRAC1_vertAA_1st0";2;62;497,38499999512;"A";1;0;NA;"A";"red";"black";"parity";3;0;0;1;1;0;1;"23";"male";"Not at all";"Bachelor degree";"right-handed";"Hungary";"Hungary"
"5c02a0089649f9000153798b";"BRAC1_vertAA_1st0";2;63;536,030000002938;"A";1;0;NA;"A";"blue";"black";"parity";9;0;0;0;1;0;1;"23";"male";"Not at all";"Bachelor degree";"right-handed";"Hungary";"Hungary"
"5c02a0089649f9000153798b";"BRAC1_vertAA_1st0";2;64;124,239999997313;"A";1;0;NA;"A";"red";"black";"magnit";7;0;1;0;1;0;1;"23";"male";"Not at all";"Bachelor degree";"right-handed";"Hungary";"Hungary"
"5c02a0089649f9000153798b";"BRAC1_vertAA_1st0";2;65;333,494999998948;"A";1;0;NA;"A";"red";"black";"parity";1;0;1;0;0;0;1;"23";"male";"Not at all";"Bachelor degree";"right-handed";"Hungary";"Hungary"
"5c02a0089649f9000153798b";"BRAC1_vertAA_1st0";2;66;167,809999998892;"L";1;1;NA;"A";"blue";"black";"magnit";6;0;1;0;1;0;1;"23";"male";"Not at all";"Bachelor degree";"right-handed";"Hungary";"Hungary"
"5c02a0089649f9000153798b";"BRAC1_vertAA_1st0";2;67;352,980000003241;"L";1;0;NA;"L";"blue";"black";"magnit";2;0;0;1;0;1;1;"23";"male";"Not at all";"Bachelor degree";"right-handed";"Hungary";"Hungary"
"5c02a0089649f9000153798b";"BRAC1_vertAA_1st0";2;68;146,270000004675;"A";1;0;NA;"A";"red";"black";"magnit";6;0;0;1;1;0;1;"23";"male";"Not at all";"Bachelor degree";"right-handed";"Hungary";"Hungary"
"5c02a0089649f9000153798b";"BRAC1_vertAA_1st0";2;69;485,244999996154;"L";1;0;NA;"L";"blue";"black";"magnit";1;0;0;1;1;0;1;"23";"male";"Not at all";"Bachelor degree";"right-handed";"Hungary";"Hungary"
"5c02a0089649f9000153798b";"BRAC1_vertAA_1st0";2;70;2501,09999999998;NA;NA;1;1;"L";"blue";"black";"parity";6;0;1;0;0;0;1;"23";"male";"Not at all";"Bachelor degree";"right-handed";"Hungary";"Hungary"
"5c02a0089649f9000153798b";"BRAC1_vertAA_1st0";2;71;162,279999996885;"L";1;0;NA;"L";"red";"black";"parity";4;0;0;0;1;1;1;"23";"male";"Not at all";"Bachelor degree";"right-handed";"Hungary";"Hungary"
"5c02a0089649f9000153798b";"BRAC1_vertAA_1st0";2;72;426,254999998491;"L";1;0;NA;"L";"red";"black";"magnit";2;0;1;0;0;0;1;"23";"male";"Not at all";"Bachelor degree";"right-handed";"Hungary";"Hungary"
"5c02a0089649f9000153798b";"BRAC1_vertAA_1st0";2;73;90,884999997681;"L";1;0;NA;"L";"blue";"black";"parity";8;0;1;0;1;0;1;"23";"male";"Not at all";"Bachelor degree";"right-handed";"Hungary";"Hungary"
"5c02a0089649f9000153798b";"BRAC1_vertAA_1st0";2;74;427,445000001229;"L";1;0;NA;"L";"blue";"black";"magnit";1;0;1;0;0;0;1;"23";"male";"Not at all";"Bachelor degree";"right-handed";"Hungary";"Hungary"
"5c02a0089649f9000153798b";"BRAC1_vertAA_1st0";2;75;107,765000000712;"L";1;0;NA;"L";"blue";"black";"parity";2;0;1;0;0;0;1;"23";"male";"Not at all";"Bachelor degree";"right-handed";"Hungary";"Hungary"
"5c02a0089649f9000153798b";"BRAC1_vertAA_1st0";2;76;435,765000001993;"A";1;0;NA;"A";"red";"black";"magnit";9;0;1;1;1;0;1;"23";"male";"Not at all";"Bachelor degree";"right-handed";"Hungary";"Hungary"
"5c02a0089649f9000153798b";"BRAC1_vertAA_1st0";2;77;451,024999994901;"L";1;0;NA;"L";"blue";"black";"parity";6;0;1;1;1;0;1;"23";"male";"Not at all";"Bachelor degree";"right-handed";"Hungary";"Hungary"
"5c02a0089649f9000153798b";"BRAC1_vertAA_1st0";2;78;416,230000002543;"L";1;0;NA;"L";"red";"black";"magnit";1;0;1;0;1;0;1;"23";"male";"Not at all";"Bachelor degree";"right-handed";"Hungary";"Hungary"
"5c02a0089649f9000153798b";"BRAC1_vertAA_1st0";2;79;308,88500000583;"A";1;1;NA;"L";"blue";"black";"parity";4;0;1;0;1;0;1;"23";"male";"Not at all";"Bachelor degree";"right-handed";"Hungary";"Hungary"
"5c02a0089649f9000153798b";"BRAC1_vertAA_1st0";2;80;801,489999997895;"A";1;0;NA;"A";"red";"black";"parity";7;0;0;1;1;1;1;"23";"male";"Not at all";"Bachelor degree";"right-handed";"Hungary";"Hungary"
"5c02a0089649f9000153798b";"BRAC1_vertAA_1st0";2;81;2508,01000000001;NA;NA;1;1;"L";"red";"black";"magnit";3;0;1;1;0;0;1;"23";"male";"Not at all";"Bachelor degree";"right-handed";"Hungary";"Hungary"
"5c02a0089649f9000153798b";"BRAC1_vertAA_1st0";2;82;413,604999994277;"L";1;1;NA;"A";"blue";"black";"parity";7;0;1;1;1;1;1;"23";"male";"Not at all";"Bachelor degree";"right-handed";"Hungary";"Hungary"
"5c02a0089649f9000153798b";"BRAC1_vertAA_1st0";2;83;1100,57999999844;"A";1;0;NA;"A";"red";"black";"parity";3;0;0;0;1;1;1;"23";"male";"Not at all";"Bachelor degree";"right-handed";"Hungary";"Hungary"
"5c02a0089649f9000153798b";"BRAC1_vertAA_1st0";2;84;430,375000003609;"A";1;0;NA;"A";"blue";"black";"magnit";9;0;1;0;1;0;1;"23";"male";"Not at all";"Bachelor degree";"right-handed";"Hungary";"Hungary"
"5c02a0089649f9000153798b";"BRAC1_vertAA_1st0";2;85;267,469999998808;"L";1;1;NA;"A";"red";"black";"parity";7;0;1;0;1;0;1;"23";"male";"Not at all";"Bachelor degree";"right-handed";"Hungary";"Hungary"
"5c02a0089649f9000153798b";"BRAC1_vertAA_1st0";2;86;433,724999995437;"L";1;0;NA;"L";"red";"black";"magnit";2;0;1;1;0;1;1;"23";"male";"Not at all";"Bachelor degree";"right-handed";"Hungary";"Hungary"
"5c02a0089649f9000153798b";"BRAC1_vertAA_1st0";2;87;410,390000004554;"A";1;0;NA;"A";"red";"black";"magnit";6;0;0;1;0;0;1;"23";"male";"Not at all";"Bachelor degree";"right-handed";"Hungary";"Hungary"
"5c02a0089649f9000153798b";"BRAC1_vertAA_1st0";2;88;132,74999999709;"L";1;1;NA;"A";"blue";"black";"parity";3;0;1;0;1;0;1;"23";"male";"Not at all";"Bachelor degree";"right-handed";"Hungary";"Hungary"
"5c02a0089649f9000153798b";"BRAC1_vertAA_1st0";2;89;402,464999999269;"A";1;1;NA;"L";"red";"black";"parity";8;0;0;1;1;1;1;"23";"male";"Not at all";"Bachelor degree";"right-handed";"Hungary";"Hungary"
"5c02a0089649f9000153798b";"BRAC1_vertAA_1st0";2;90;625,090000001248;"L";1;1;NA;"A";"blue";"black";"parity";3;0;0;1;1;1;1;"23";"male";"Not at all";"Bachelor degree";"right-handed";"Hungary";"Hungary"
"5c02a0089649f9000153798b";"BRAC1_vertAA_1st0";2;91;447,684999999241;"A";1;0;NA;"A";"blue";"black";"magnit";7;0;1;0;0;1;1;"23";"male";"Not at all";"Bachelor degree";"right-handed";"Hungary";"Hungary"
"5c02a0089649f9000153798b";"BRAC1_vertAA_1st0";2;92;682,499999995343;"L";1;0;NA;"L";"red";"black";"parity";2;0;1;1;1;0;1;"23";"male";"Not at all";"Bachelor degree";"right-handed";"Hungary";"Hungary"
"5c02a0089649f9000153798b";"BRAC1_vertAA_1st0";2;93;413,135000002454;"A";1;1;NA;"L";"blue";"black";"parity";4;0;0;0;1;0;1;"23";"male";"Not at all";"Bachelor degree";"right-handed";"Hungary";"Hungary"
"5c02a0089649f9000153798b";"BRAC1_vertAA_1st0";2;94;145,495000004303;"L";1;1;NA;"A";"blue";"black";"magnit";7;0;1;1;0;1;1;"23";"male";"Not at all";"Bachelor degree";"right-handed";"Hungary";"Hungary"
"5c02a0089649f9000153798b";"BRAC1_vertAA_1st0";2;95;493,850000006263;"A";1;0;NA;"A";"blue";"black";"parity";9;0;1;0;0;1;1;"23";"male";"Not at all";"Bachelor degree";"right-handed";"Hungary";"Hungary"
"5c02a0089649f9000153798b";"BRAC1_vertAA_1st0";3;0;1603,40500000166;"A";1;1;NA;"L";"red";"black";"parity";2;300;99;99;99;99;1;"23";"male";"Not at all";"Bachelor degree";"right-handed";"Hungary";"Hungary"
"5c02a0089649f9000153798b";"BRAC1_vertAA_1st0";3;1;616,869999998016;"A";1;0;NA;"A";"blue";"black";"magnit";7;300;1;1;1;1;1;"23";"male";"Not at all";"Bachelor degree";"right-handed";"Hungary";"Hungary"
"5c02a0089649f9000153798b";"BRAC1_vertAA_1st0";3;2;1462,01499999734;"A";1;0;NA;"A";"blue";"black";"parity";3;300;1;0;0;0;1;"23";"male";"Not at all";"Bachelor degree";"right-handed";"Hungary";"Hungary"
"5c02a0089649f9000153798b";"BRAC1_vertAA_1st0";3;3;601,624999995693;"A";1;1;NA;"L";"red";"black";"parity";8;300;0;1;1;0;1;"23";"male";"Not at all";"Bachelor degree";"right-handed";"Hungary";"Hungary"
"5c02a0089649f9000153798b";"BRAC1_vertAA_1st0";3;4;1502,24000000162;"L";1;0;NA;"L";"blue";"black";"parity";6;300;0;0;1;1;1;"23";"male";"Not at all";"Bachelor degree";"right-handed";"Hungary";"Hungary"
"5c02a0089649f9000153798b";"BRAC1_vertAA_1st0";3;5;291,25500000373;"L";1;0;NA;"L";"blue";"black";"parity";8;300;0;0;0;0;1;"23";"male";"Not at all";"Bachelor degree";"right-handed";"Hungary";"Hungary"
"5c02a0089649f9000153798b";"BRAC1_vertAA_1st0";3;6;332,060000000522;"A";1;1;NA;"L";"blue";"black";"magnit";4;300;1;0;0;0;1;"23";"male";"Not at all";"Bachelor degree";"right-handed";"Hungary";"Hungary"
"5c02a0089649f9000153798b";"BRAC1_vertAA_1st0";3;7;598,949999999721;"L";1;0;NA;"L";"red";"black";"parity";2;300;1;0;1;1;1;"23";"male";"Not at all";"Bachelor degree";"right-handed";"Hungary";"Hungary"
"5c02a0089649f9000153798b";"BRAC1_vertAA_1st0";3;8;455,389999995474;"L";1;0;NA;"L";"blue";"black";"magnit";1;300;1;0;1;0;1;"23";"male";"Not at all";"Bachelor degree";"right-handed";"Hungary";"Hungary"
"5c02a0089649f9000153798b";"BRAC1_vertAA_1st0";3;9;505,940000002738;"A";1;0;NA;"A";"red";"black";"magnit";8;300;0;1;1;0;1;"23";"male";"Not at all";"Bachelor degree";"right-handed";"Hungary";"Hungary"
"5c02a0089649f9000153798b";"BRAC1_vertAA_1st0";3;10;463,060000001919;"A";1;0;NA;"A";"blue";"black";"parity";7;300;1;0;1;0;1;"23";"male";"Not at all";"Bachelor degree";"right-handed";"Hungary";"Hungary"
"5c02a0089649f9000153798b";"BRAC1_vertAA_1st0";3;11;432,809999998426;"A";1;0;NA;"A";"blue";"black";"magnit";8;300;1;0;0;0;1;"23";"male";"Not at all";"Bachelor degree";"right-handed";"Hungary";"Hungary"
"5c02a0089649f9000153798b";"BRAC1_vertAA_1st0";3;12;592,989999997313;"L";1;0;NA;"L";"red";"black";"magnit";1;300;0;1;1;0;1;"23";"male";"Not at all";"Bachelor degree";"right-handed";"Hungary";"Hungary"
"5c02a0089649f9000153798b";"BRAC1_vertAA_1st0";3;13;430,285000002128;"A";1;0;NA;"A";"blue";"black";"magnit";6;300;0;1;1;0;1;"23";"male";"Not at all";"Bachelor degree";"right-handed";"Hungary";"Hungary"
"5c02a0089649f9000153798b";"BRAC1_vertAA_1st0";3;14;588,889999999083;"A";1;0;NA;"A";"red";"black";"parity";9;300;1;0;1;0;1;"23";"male";"Not at all";"Bachelor degree";"right-handed";"Hungary";"Hungary"
"5c02a0089649f9000153798b";"BRAC1_vertAA_1st0";3;15;475,320000005071;"L";1;0;NA;"L";"red";"black";"parity";4;300;0;1;0;0;1;"23";"male";"Not at all";"Bachelor degree";"right-handed";"Hungary";"Hungary"
"5c02a0089649f9000153798b";"BRAC1_vertAA_1st0";3;16;1064,41500000074;"A";1;0;NA;"A";"red";"black";"parity";1;300;0;1;0;0;1;"23";"male";"Not at all";"Bachelor degree";"right-handed";"Hungary";"Hungary"
"5c02a0089649f9000153798b";"BRAC1_vertAA_1st0";3;17;1700,16000000038;"L";1;0;NA;"L";"red";"black";"magnit";2;300;1;1;0;0;1;"23";"male";"Not at all";"Bachelor degree";"right-handed";"Hungary";"Hungary"
"5c02a0089649f9000153798b";"BRAC1_vertAA_1st0";3;18;150,070000003325;"A";1;1;NA;"L";"blue";"black";"magnit";3;300;0;0;1;0;1;"23";"male";"Not at all";"Bachelor degree";"right-handed";"Hungary";"Hungary"
"5c02a0089649f9000153798b";"BRAC1_vertAA_1st0";3;19;296,089999996126;"L";1;0;NA;"L";"red";"black";"parity";6;300;1;0;1;1;1;"23";"male";"Not at all";"Bachelor degree";"right-handed";"Hungary";"Hungary"
"5c02a0089649f9000153798b";"BRAC1_vertAA_1st0";3;20;445,009999995818;"A";1;0;NA;"A";"blue";"black";"magnit";7;300;1;1;1;0;1;"23";"male";"Not at all";"Bachelor degree";"right-handed";"Hungary";"Hungary"
"5c02a0089649f9000153798b";"BRAC1_vertAA_1st0";3;21;2151,12500000396;"A";1;1;NA;"L";"red";"black";"parity";4;300;1;1;1;0;1;"23";"male";"Not at all";"Bachelor degree";"right-handed";"Hungary";"Hungary"
"5c02a0089649f9000153798b";"BRAC1_vertAA_1st0";3;22;520,674999999697;"L";1;0;NA;"L";"red";"black";"magnit";2;300;1;0;0;1;1;"23";"male";"Not at all";"Bachelor degree";"right-handed";"Hungary";"Hungary"
"5c02a0089649f9000153798b";"BRAC1_vertAA_1st0";3;23;590,165000001434;"L";1;0;NA;"L";"blue";"black";"parity";6;300;1;0;1;0;1;"23";"male";"Not at all";"Bachelor degree";"right-handed";"Hungary";"Hungary"
"5c02a0089649f9000153798b";"BRAC1_vertAA_1st0";3;24;477,935000002617;"A";1;0;NA;"A";"red";"black";"magnit";9;300;1;1;1;0;1;"23";"male";"Not at all";"Bachelor degree";"right-handed";"Hungary";"Hungary"
"5c02a0089649f9000153798b";"BRAC1_vertAA_1st0";3;25;697,265000002575;"A";1;0;NA;"A";"blue";"black";"parity";7;300;1;0;1;0;1;"23";"male";"Not at all";"Bachelor degree";"right-handed";"Hungary";"Hungary"
"5c02a0089649f9000153798b";"BRAC1_vertAA_1st0";3;26;561,860000001616;"A";1;0;NA;"A";"red";"black";"parity";9;300;0;0;1;0;1;"23";"male";"Not at all";"Bachelor degree";"right-handed";"Hungary";"Hungary"
"5c02a0089649f9000153798b";"BRAC1_vertAA_1st0";3;27;468,280000000959;"A";1;0;NA;"A";"blue";"black";"magnit";8;300;1;0;1;0;1;"23";"male";"Not at all";"Bachelor degree";"right-handed";"Hungary";"Hungary"
"5c02a0089649f9000153798b";"BRAC1_vertAA_1st0";3;28;450,904999997932;"L";1;0;NA;"L";"red";"black";"magnit";1;300;0;1;1;0;1;"23";"male";"Not at all";"Bachelor degree";"right-handed";"Hungary";"Hungary"
"5c02a0089649f9000153798b";"BRAC1_vertAA_1st0";3;29;377,580000000307;"L";1;0;NA;"L";"blue";"black";"parity";2;300;1;0;1;0;1;"23";"male";"Not at all";"Bachelor degree";"right-handed";"Hungary";"Hungary"
"5c02a0089649f9000153798b";"BRAC1_vertAA_1st0";3;30;461,769999994431;"L";1;1;NA;"A";"blue";"black";"parity";9;300;0;1;0;0;1;"23";"male";"Not at all";"Bachelor degree";"right-handed";"Hungary";"Hungary"
"5c02a0089649f9000153798b";"BRAC1_vertAA_1st0";3;31;529,959999999846;"A";1;0;NA;"A";"red";"black";"parity";7;300;0;0;1;1;1;"23";"male";"Not at all";"Bachelor degree";"right-handed";"Hungary";"Hungary"
"5c02a0089649f9000153798b";"BRAC1_vertAA_1st0";3;32;292,765000005602;"A";1;0;NA;"A";"red";"black";"magnit";8;300;1;0;0;0;1;"23";"male";"Not at all";"Bachelor degree";"right-handed";"Hungary";"Hungary"
"5c02a0089649f9000153798b";"BRAC1_vertAA_1st0";3;33;239,055000005406;"A";1;1;NA;"L";"blue";"black";"magnit";2;300;0;1;1;0;1;"23";"male";"Not at all";"Bachelor degree";"right-handed";"Hungary";"Hungary"
"5c02a0089649f9000153798b";"BRAC1_vertAA_1st0";3;34;438,029999997583;"A";1;0;NA;"A";"blue";"black";"magnit";6;300;0;1;0;1;1;"23";"male";"Not at all";"Bachelor degree";"right-handed";"Hungary";"Hungary"
"5c02a0089649f9000153798b";"BRAC1_vertAA_1st0";3;35;416,935000000987;"L";1;0;NA;"L";"red";"black";"magnit";2;300;0;1;1;0;1;"23";"male";"Not at all";"Bachelor degree";"right-handed";"Hungary";"Hungary"
"5c02a0089649f9000153798b";"BRAC1_vertAA_1st0";3;36;425,049999997951;"L";1;0;NA;"L";"blue";"black";"parity";8;300;1;0;1;0;1;"23";"male";"Not at all";"Bachelor degree";"right-handed";"Hungary";"Hungary"
"5c02a0089649f9000153798b";"BRAC1_vertAA_1st0";3;37;387,595000000205;"A";1;0;NA;"A";"red";"black";"magnit";7;300;1;1;1;0;1;"23";"male";"Not at all";"Bachelor degree";"right-handed";"Hungary";"Hungary"
"5c02a0089649f9000153798b";"BRAC1_vertAA_1st0";3;38;21,2800000007264;"A";1;0;NA;"A";"blue";"black";"parity";3;300;1;0;1;0;1;"23";"male";"Not at all";"Bachelor degree";"right-handed";"Hungary";"Hungary"
"5c02a0089649f9000153798b";"BRAC1_vertAA_1st0";3;39;434,139999997569;"A";1;0;NA;"A";"red";"black";"magnit";7;300;1;0;1;0;1;"23";"male";"Not at all";"Bachelor degree";"right-handed";"Hungary";"Hungary"
"5c02a0089649f9000153798b";"BRAC1_vertAA_1st0";3;40;1028,1099999994;"A";1;0;NA;"A";"red";"black";"parity";9;300;1;0;0;0;1;"23";"male";"Not at all";"Bachelor degree";"right-handed";"Hungary";"Hungary"
"5c02a0089649f9000153798b";"BRAC1_vertAA_1st0";3;41;723,339999996824;"L";1;1;NA;"A";"red";"black";"parity";7;300;0;0;0;0;1;"23";"male";"Not at all";"Bachelor degree";"right-handed";"Hungary";"Hungary"
"5c02a0089649f9000153798b";"BRAC1_vertAA_1st0";3;42;276,445000003208;"A";1;1;NA;"L";"red";"black";"parity";8;300;0;1;0;1;1;"23";"male";"Not at all";"Bachelor degree";"right-handed";"Hungary";"Hungary"
"5c02a0089649f9000153798b";"BRAC1_vertAA_1st0";3;43;600,575000004028;"L";1;1;NA;"A";"blue";"black";"parity";9;300;0;1;1;1;1;"23";"male";"Not at all";"Bachelor degree";"right-handed";"Hungary";"Hungary"
"5c02a0089649f9000153798b";"BRAC1_vertAA_1st0";3;44;343,809999998426;"L";1;1;NA;"A";"blue";"black";"magnit";7;300;1;0;0;1;1;"23";"male";"Not at all";"Bachelor degree";"right-handed";"Hungary";"Hungary"
"5c02a0089649f9000153798b";"BRAC1_vertAA_1st0";3;45;380,685000003781;"A";1;0;NA;"A";"red";"black";"magnit";8;300;0;0;1;1;1;"23";"male";"Not at all";"Bachelor degree";"right-handed";"Hungary";"Hungary"
"5c02a0089649f9000153798b";"BRAC1_vertAA_1st0";3;46;874,004999997793;"A";1;0;NA;"A";"blue";"black";"parity";7;300;1;0;1;0;1;"23";"male";"Not at all";"Bachelor degree";"right-handed";"Hungary";"Hungary"
"5c02a0089649f9000153798b";"BRAC1_vertAA_1st0";3;47;648,269999997923;"L";1;0;NA;"L";"blue";"black";"parity";8;300;0;1;0;0;1;"23";"male";"Not at all";"Bachelor degree";"right-handed";"Hungary";"Hungary"
"5c02a0089649f9000153798b";"BRAC1_vertAA_1st0";3;48;679,714999998454;"L";1;0;NA;"L";"red";"black";"parity";6;300;0;0;1;0;1;"23";"male";"Not at all";"Bachelor degree";"right-handed";"Hungary";"Hungary"
"5c02a0089649f9000153798b";"BRAC1_vertAA_1st0";3;49;592,04000000318;"L";1;0;NA;"L";"red";"black";"parity";8;300;0;0;0;0;1;"23";"male";"Not at all";"Bachelor degree";"right-handed";"Hungary";"Hungary"
"5c02a0089649f9000153798b";"BRAC1_vertAA_1st0";3;50;505,02000000421;"A";1;0;NA;"A";"blue";"black";"parity";3;300;0;1;1;0;1;"23";"male";"Not at all";"Bachelor degree";"right-handed";"Hungary";"Hungary"
"5c02a0089649f9000153798b";"BRAC1_vertAA_1st0";3;51;434,35000000312;"A";1;0;NA;"A";"red";"black";"magnit";6;300;1;0;1;0;1;"23";"male";"Not at all";"Bachelor degree";"right-handed";"Hungary";"Hungary"
"5c02a0089649f9000153798b";"BRAC1_vertAA_1st0";3;52;63,0949999976438;"A";1;0;NA;"A";"red";"black";"magnit";7;300;0;0;0;0;1;"23";"male";"Not at all";"Bachelor degree";"right-handed";"Hungary";"Hungary"
"5c02a0089649f9000153798b";"BRAC1_vertAA_1st0";3;53;173,644999995362;"A";1;1;NA;"L";"blue";"black";"parity";6;300;1;1;1;0;1;"23";"male";"Not at all";"Bachelor degree";"right-handed";"Hungary";"Hungary"
"5c02a0089649f9000153798b";"BRAC1_vertAA_1st0";3;54;613,250000002095;"A";1;1;NA;"L";"red";"black";"magnit";4;300;1;0;1;1;1;"23";"male";"Not at all";"Bachelor degree";"right-handed";"Hungary";"Hungary"
"5c02a0089649f9000153798b";"BRAC1_vertAA_1st0";3;55;732,530000001076;"A";1;0;NA;"A";"red";"black";"parity";3;300;1;1;0;1;1;"23";"male";"Not at all";"Bachelor degree";"right-handed";"Hungary";"Hungary"
"5c02a0089649f9000153798b";"BRAC1_vertAA_1st0";3;56;462,945000006584;"A";1;0;NA;"A";"blue";"black";"magnit";9;300;1;0;1;0;1;"23";"male";"Not at all";"Bachelor degree";"right-handed";"Hungary";"Hungary"
"5c02a0089649f9000153798b";"BRAC1_vertAA_1st0";3;57;425,105000002077;"L";1;0;NA;"L";"blue";"black";"magnit";3;300;0;1;0;0;1;"23";"male";"Not at all";"Bachelor degree";"right-handed";"Hungary";"Hungary"
"5c02a0089649f9000153798b";"BRAC1_vertAA_1st0";3;58;21,9799999977695;"L";1;1;NA;"A";"blue";"black";"parity";9;300;1;1;0;0;1;"23";"male";"Not at all";"Bachelor degree";"right-handed";"Hungary";"Hungary"
"5c02a0089649f9000153798b";"BRAC1_vertAA_1st0";3;59;28,5999999978812;"L";1;1;NA;"A";"red";"black";"parity";3;300;0;0;1;1;1;"23";"male";"Not at all";"Bachelor degree";"right-handed";"Hungary";"Hungary"
"5c02a0089649f9000153798b";"BRAC1_vertAA_1st0";3;60;141,179999998771;"L";1;0;NA;"L";"blue";"black";"magnit";1;300;1;1;1;1;1;"23";"male";"Not at all";"Bachelor degree";"right-handed";"Hungary";"Hungary"
"5c02a0089649f9000153798b";"BRAC1_vertAA_1st0";3;61;566,904999999679;"A";1;1;NA;"L";"red";"black";"parity";2;300;1;0;1;0;1;"23";"male";"Not at all";"Bachelor degree";"right-handed";"Hungary";"Hungary"
"5c02a0089649f9000153798b";"BRAC1_vertAA_1st0";3;62;431,389999998035;"L";1;0;NA;"L";"red";"black";"magnit";3;300;1;0;0;1;1;"23";"male";"Not at all";"Bachelor degree";"right-handed";"Hungary";"Hungary"
"5c02a0089649f9000153798b";"BRAC1_vertAA_1st0";3;63;813,515000001527;"L";1;0;NA;"L";"blue";"black";"parity";4;300;1;0;1;0;1;"23";"male";"Not at all";"Bachelor degree";"right-handed";"Hungary";"Hungary"
"5c02a0089649f9000153798b";"BRAC1_vertAA_1st0";3;64;573,210000002291;"L";1;0;NA;"L";"blue";"black";"magnit";1;300;1;0;0;0;1;"23";"male";"Not at all";"Bachelor degree";"right-handed";"Hungary";"Hungary"
"5c02a0089649f9000153798b";"BRAC1_vertAA_1st0";3;65;598,334999995073;"A";1;0;NA;"A";"red";"black";"parity";3;300;1;1;1;0;1;"23";"male";"Not at all";"Bachelor degree";"right-handed";"Hungary";"Hungary"
"5c02a0089649f9000153798b";"BRAC1_vertAA_1st0";3;66;358,775000000605;"A";1;1;NA;"L";"red";"black";"magnit";1;300;1;1;0;0;1;"23";"male";"Not at all";"Bachelor degree";"right-handed";"Hungary";"Hungary"
"5c02a0089649f9000153798b";"BRAC1_vertAA_1st0";3;67;1172,55000000284;"A";1;0;NA;"A";"blue";"black";"magnit";8;300;0;1;1;1;1;"23";"male";"Not at all";"Bachelor degree";"right-handed";"Hungary";"Hungary"
"5c02a0089649f9000153798b";"BRAC1_vertAA_1st0";3;68;549,37000000081;"L";1;0;NA;"L";"red";"black";"magnit";4;300;0;1;1;0;1;"23";"male";"Not at all";"Bachelor degree";"right-handed";"Hungary";"Hungary"
"5c02a0089649f9000153798b";"BRAC1_vertAA_1st0";3;69;422,185000003083;"A";1;0;NA;"A";"red";"black";"magnit";6;300;0;1;0;0;1;"23";"male";"Not at all";"Bachelor degree";"right-handed";"Hungary";"Hungary"
"5c02a0089649f9000153798b";"BRAC1_vertAA_1st0";3;70;378,405000003055;"L";1;0;NA;"L";"blue";"black";"magnit";4;300;0;1;1;0;1;"23";"male";"Not at all";"Bachelor degree";"right-handed";"Hungary";"Hungary"
"5c02a0089649f9000153798b";"BRAC1_vertAA_1st0";3;71;555,000000000233;"L";1;0;NA;"L";"blue";"black";"magnit";2;300;0;0;0;0;1;"23";"male";"Not at all";"Bachelor degree";"right-handed";"Hungary";"Hungary"
"5c02a0089649f9000153798b";"BRAC1_vertAA_1st0";3;72;428,094999995548;"A";1;0;NA;"A";"red";"black";"magnit";9;300;0;1;1;0;1;"23";"male";"Not at all";"Bachelor degree";"right-handed";"Hungary";"Hungary"
"5c02a0089649f9000153798b";"BRAC1_vertAA_1st0";3;73;628,080000002403;"A";1;0;NA;"A";"blue";"black";"parity";1;300;1;0;1;0;1;"23";"male";"Not at all";"Bachelor degree";"right-handed";"Hungary";"Hungary"
"5c02a0089649f9000153798b";"BRAC1_vertAA_1st0";3;74;821,230000001378;"A";1;1;NA;"L";"blue";"black";"parity";2;300;0;1;0;0;1;"23";"male";"Not at all";"Bachelor degree";"right-handed";"Hungary";"Hungary"
"5c02a0089649f9000153798b";"BRAC1_vertAA_1st0";3;75;573,885000005364;"A";1;0;NA;"A";"red";"black";"parity";1;300;0;1;1;1;1;"23";"male";"Not at all";"Bachelor degree";"right-handed";"Hungary";"Hungary"
"5c02a0089649f9000153798b";"BRAC1_vertAA_1st0";3;76;482,700000000419;"A";1;0;NA;"A";"red";"black";"magnit";9;300;1;0;0;0;1;"23";"male";"Not at all";"Bachelor degree";"right-handed";"Hungary";"Hungary"
"5c02a0089649f9000153798b";"BRAC1_vertAA_1st0";3;77;447,890000002924;"L";1;0;NA;"L";"blue";"black";"magnit";3;300;0;1;1;0;1;"23";"male";"Not at all";"Bachelor degree";"right-handed";"Hungary";"Hungary"
"5c02a0089649f9000153798b";"BRAC1_vertAA_1st0";3;78;507,43499999959;"A";1;0;NA;"A";"blue";"black";"magnit";9;300;0;1;0;0;1;"23";"male";"Not at all";"Bachelor degree";"right-handed";"Hungary";"Hungary"
"5c02a0089649f9000153798b";"BRAC1_vertAA_1st0";3;79;663,524999996414;"A";1;0;NA;"A";"red";"black";"magnit";6;300;0;0;1;0;1;"23";"male";"Not at all";"Bachelor degree";"right-handed";"Hungary";"Hungary"
"5c02a0089649f9000153798b";"BRAC1_vertAA_1st0";3;80;578,645000001416;"A";1;0;NA;"A";"blue";"black";"parity";1;300;1;0;1;0;1;"23";"male";"Not at all";"Bachelor degree";"right-handed";"Hungary";"Hungary"
"5c02a0089649f9000153798b";"BRAC1_vertAA_1st0";3;81;660,084999995772;"L";1;0;NA;"L";"blue";"black";"parity";4;300;0;1;0;0;1;"23";"male";"Not at all";"Bachelor degree";"right-handed";"Hungary";"Hungary"
"5c02a0089649f9000153798b";"BRAC1_vertAA_1st0";3;82;614,840000001946;"A";1;0;NA;"A";"red";"black";"parity";7;300;0;1;1;0;1;"23";"male";"Not at all";"Bachelor degree";"right-handed";"Hungary";"Hungary"
"5c02a0089649f9000153798b";"BRAC1_vertAA_1st0";3;83;547,23499999824;"L";1;0;NA;"L";"red";"black";"parity";4;300;0;1;0;0;1;"23";"male";"Not at all";"Bachelor degree";"right-handed";"Hungary";"Hungary"
"5c02a0089649f9000153798b";"BRAC1_vertAA_1st0";3;84;470,515000000829;"L";1;0;NA;"L";"red";"black";"magnit";3;300;1;0;0;0;1;"23";"male";"Not at all";"Bachelor degree";"right-handed";"Hungary";"Hungary"
"5c02a0089649f9000153798b";"BRAC1_vertAA_1st0";3;85;521,054999997374;"A";1;0;NA;"A";"blue";"black";"magnit";6;300;0;1;1;0;1;"23";"male";"Not at all";"Bachelor degree";"right-handed";"Hungary";"Hungary"
"5c02a0089649f9000153798b";"BRAC1_vertAA_1st0";3;86;697,680000004824;"L";1;0;NA;"L";"blue";"black";"parity";4;300;1;1;0;0;1;"23";"male";"Not at all";"Bachelor degree";"right-handed";"Hungary";"Hungary"
"5c02a0089649f9000153798b";"BRAC1_vertAA_1st0";3;87;564,700000002515;"A";1;0;NA;"A";"blue";"black";"parity";1;300;0;1;0;0;1;"23";"male";"Not at all";"Bachelor degree";"right-handed";"Hungary";"Hungary"
"5c02a0089649f9000153798b";"BRAC1_vertAA_1st0";3;88;756,730000001146;"L";1;0;NA;"L";"blue";"black";"magnit";4;300;1;1;0;0;1;"23";"male";"Not at all";"Bachelor degree";"right-handed";"Hungary";"Hungary"
"5c02a0089649f9000153798b";"BRAC1_vertAA_1st0";3;89;972,995000003604;"A";1;0;NA;"A";"red";"black";"parity";1;300;1;1;1;0;1;"23";"male";"Not at all";"Bachelor degree";"right-handed";"Hungary";"Hungary"
"5c02a0089649f9000153798b";"BRAC1_vertAA_1st0";3;90;591,520000001881;"L";1;0;NA;"L";"red";"black";"magnit";3;300;1;1;0;0;1;"23";"male";"Not at all";"Bachelor degree";"right-handed";"Hungary";"Hungary"
"5c02a0089649f9000153798b";"BRAC1_vertAA_1st0";3;91;358,754999993835;"A";1;0;NA;"A";"blue";"black";"magnit";9;300;0;1;1;0;1;"23";"male";"Not at all";"Bachelor degree";"right-handed";"Hungary";"Hungary"
"5c02a0089649f9000153798b";"BRAC1_vertAA_1st0";3;92;430,060000006109;"L";1;0;NA;"L";"blue";"black";"magnit";2;300;0;1;0;0;1;"23";"male";"Not at all";"Bachelor degree";"right-handed";"Hungary";"Hungary"
"5c02a0089649f9000153798b";"BRAC1_vertAA_1st0";3;93;413,854999998817;"L";1;0;NA;"L";"red";"black";"magnit";4;300;0;0;1;0;1;"23";"male";"Not at all";"Bachelor degree";"right-handed";"Hungary";"Hungary"
"5c02a0089649f9000153798b";"BRAC1_vertAA_1st0";3;94;469,649999998976;"L";1;0;NA;"L";"red";"black";"parity";6;300;1;0;0;0;1;"23";"male";"Not at all";"Bachelor degree";"right-handed";"Hungary";"Hungary"
"5c02a0089649f9000153798b";"BRAC1_vertAA_1st0";3;95;451,965000000317;"L";1;0;NA;"L";"blue";"black";"parity";2;300;0;0;1;0;1;"23";"male";"Not at all";"Bachelor degree";"right-handed";"Hungary";"Hungary"
"5e815773285d3883ba2fbbcf";"BRAC1_horiAL_1st300";0;0;504,15500003146;"A";1;0;NA;"A";"blue";"black";"magnit";8;300;99;99;99;99;1;"24";"male";"I've studied at least one of these disciplines (school or university)";"Master degree";"right-handed";"English";"United States"
"5e815773285d3883ba2fbbcf";"BRAC1_horiAL_1st300";0;1;634,354999987409;"A";1;0;NA;"A";"blue";"black";"magnit";9;300;0;0;0;0;1;"24";"male";"I've studied at least one of these disciplines (school or university)";"Master degree";"right-handed";"English";"United States"
"5e815773285d3883ba2fbbcf";"BRAC1_horiAL_1st300";0;2;485,380000027362;"L";1;0;NA;"L";"blue";"black";"magnit";4;300;0;1;0;0;1;"24";"male";"I've studied at least one of these disciplines (school or university)";"Master degree";"right-handed";"English";"United States"
"5e815773285d3883ba2fbbcf";"BRAC1_horiAL_1st300";0;3;797,365000005811;"L";1;0;NA;"L";"red";"black";"parity";1;300;1;0;1;0;1;"24";"male";"I've studied at least one of these disciplines (school or university)";"Master degree";"right-handed";"English";"United States"
"5e815773285d3883ba2fbbcf";"BRAC1_horiAL_1st300";0;4;889,039999980014;"L";1;0;NA;"L";"blue";"black";"magnit";2;300;1;0;1;0;1;"24";"male";"I've studied at least one of these disciplines (school or university)";"Master degree";"right-handed";"English";"United States"
"5e815773285d3883ba2fbbcf";"BRAC1_horiAL_1st300";0;5;961,790000030305;"L";1;0;NA;"L";"red";"black";"magnit";4;300;0;0;1;0;1;"24";"male";"I've studied at least one of these disciplines (school or university)";"Master degree";"right-handed";"English";"United States"
"5e815773285d3883ba2fbbcf";"BRAC1_horiAL_1st300";0;6;725,774999998976;"A";1;0;NA;"A";"blue";"black";"parity";2;300;1;1;1;0;1;"24";"male";"I've studied at least one of these disciplines (school or university)";"Master degree";"right-handed";"English";"United States"
"5e815773285d3883ba2fbbcf";"BRAC1_horiAL_1st300";0;7;835,069999971893;"A";1;0;NA;"A";"red";"black";"magnit";8;300;1;0;1;0;1;"24";"male";"I've studied at least one of these disciplines (school or university)";"Master degree";"right-handed";"English";"United States"
"5e815773285d3883ba2fbbcf";"BRAC1_horiAL_1st300";0;8;590,5849999981;"L";1;0;NA;"L";"blue";"black";"magnit";2;300;0;1;1;0;1;"24";"male";"I've studied at least one of these disciplines (school or university)";"Master degree";"right-handed";"English";"United States"
"5e815773285d3883ba2fbbcf";"BRAC1_horiAL_1st300";0;9;869,999999995343;"A";1;0;NA;"A";"blue";"black";"magnit";6;300;0;1;0;0;1;"24";"male";"I've studied at least one of these disciplines (school or university)";"Master degree";"right-handed";"English";"United States"
"5e815773285d3883ba2fbbcf";"BRAC1_horiAL_1st300";0;10;1090,65999998711;"A";1;0;NA;"A";"red";"black";"parity";2;300;1;0;1;0;1;"24";"male";"I've studied at least one of these disciplines (school or university)";"Master degree";"right-handed";"English";"United States"
"5e815773285d3883ba2fbbcf";"BRAC1_horiAL_1st300";0;11;1594,66999996221;"L";1;0;NA;"L";"red";"black";"parity";9;300;0;1;0;0;1;"24";"male";"I've studied at least one of these disciplines (school or university)";"Master degree";"right-handed";"English";"United States"
"5e815773285d3883ba2fbbcf";"BRAC1_horiAL_1st300";0;12;1461,48499997798;"L";1;0;NA;"L";"red";"black";"magnit";4;300;1;0;0;0;1;"24";"male";"I've studied at least one of these disciplines (school or university)";"Master degree";"right-handed";"English";"United States"
"5e815773285d3883ba2fbbcf";"BRAC1_horiAL_1st300";0;13;627,564999973401;"L";1;0;NA;"L";"blue";"black";"magnit";3;300;0;0;1;0;1;"24";"male";"I've studied at least one of these disciplines (school or university)";"Master degree";"right-handed";"English";"United States"
"5e815773285d3883ba2fbbcf";"BRAC1_horiAL_1st300";0;14;682,685000007041;"A";1;0;NA;"A";"red";"black";"magnit";9;300;0;1;1;0;1;"24";"male";"I've studied at least one of these disciplines (school or university)";"Master degree";"right-handed";"English";"United States"
"5e815773285d3883ba2fbbcf";"BRAC1_horiAL_1st300";0;15;574,145000020508;"L";1;0;NA;"L";"blue";"black";"magnit";3;300;0;1;1;0;1;"24";"male";"I've studied at least one of these disciplines (school or university)";"Master degree";"right-handed";"English";"United States"
"5e815773285d3883ba2fbbcf";"BRAC1_horiAL_1st300";0;16;584,794999973383;"A";1;0;NA;"A";"red";"black";"magnit";7;300;0;1;1;0;1;"24";"male";"I've studied at least one of these disciplines (school or university)";"Master degree";"right-handed";"English";"United States"
"5e815773285d3883ba2fbbcf";"BRAC1_horiAL_1st300";0;17;550,569999963045;"A";1;0;NA;"A";"blue";"black";"parity";2;300;1;0;1;0;1;"24";"male";"I've studied at least one of these disciplines (school or university)";"Master degree";"right-handed";"English";"United States"
"5e815773285d3883ba2fbbcf";"BRAC1_horiAL_1st300";0;18;654,030000034254;"L";1;0;NA;"L";"blue";"black";"parity";1;300;0;1;0;0;1;"24";"male";"I've studied at least one of these disciplines (school or university)";"Master degree";"right-handed";"English";"United States"
"5e815773285d3883ba2fbbcf";"BRAC1_horiAL_1st300";0;19;567,144999979064;"A";1;1;NA;"L";"blue";"black";"parity";7;300;0;0;0;0;1;"24";"male";"I've studied at least one of these disciplines (school or university)";"Master degree";"right-handed";"English";"United States"
"5e815773285d3883ba2fbbcf";"BRAC1_horiAL_1st300";0;20;1068,2449999731;"L";1;1;NA;"A";"red";"black";"parity";8;300;0;1;1;1;1;"24";"male";"I've studied at least one of these disciplines (school or university)";"Master degree";"right-handed";"English";"United States"
"5e815773285d3883ba2fbbcf";"BRAC1_horiAL_1st300";0;21;1515,48500003992;"L";1;0;NA;"L";"red";"black";"magnit";3;300;1;1;0;1;1;"24";"male";"I've studied at least one of these disciplines (school or university)";"Master degree";"right-handed";"English";"United States"
"5e815773285d3883ba2fbbcf";"BRAC1_horiAL_1st300";0;22;1219,68999999808;"L";1;0;NA;"L";"red";"black";"parity";7;300;1;0;0;0;1;"24";"male";"I've studied at least one of these disciplines (school or university)";"Master degree";"right-handed";"English";"United States"
"5e815773285d3883ba2fbbcf";"BRAC1_horiAL_1st300";0;23;1270,33999998821;"L";1;0;NA;"L";"blue";"black";"parity";3;300;0;0;1;0;1;"24";"male";"I've studied at least one of these disciplines (school or university)";"Master degree";"right-handed";"English";"United States"
"5e815773285d3883ba2fbbcf";"BRAC1_horiAL_1st300";0;24;864,479999989271;"L";1;0;NA;"L";"blue";"black";"parity";7;300;0;0;0;0;1;"24";"male";"I've studied at least one of these disciplines (school or university)";"Master degree";"right-handed";"English";"United States"
"5e815773285d3883ba2fbbcf";"BRAC1_horiAL_1st300";0;25;789,999999979045;"A";1;0;NA;"A";"red";"black";"parity";6;300;0;1;1;0;1;"24";"male";"I've studied at least one of these disciplines (school or university)";"Master degree";"right-handed";"English";"United States"
"5e815773285d3883ba2fbbcf";"BRAC1_horiAL_1st300";0;26;956,345000013243;"L";1;0;NA;"L";"blue";"black";"parity";9;300;0;1;1;0;1;"24";"male";"I've studied at least one of these disciplines (school or university)";"Master degree";"right-handed";"English";"United States"
"5e815773285d3883ba2fbbcf";"BRAC1_horiAL_1st300";0;27;1206,86999999452;"L";1;0;NA;"L";"blue";"black";"parity";1;300;0;0;0;0;1;"24";"male";"I've studied at least one of these disciplines (school or university)";"Master degree";"right-handed";"English";"United States"
"5e815773285d3883ba2fbbcf";"BRAC1_horiAL_1st300";0;28;1099,94500002358;"A";1;0;NA;"A";"red";"black";"magnit";7;300;1;1;1;0;1;"24";"male";"I've studied at least one of these disciplines (school or university)";"Master degree";"right-handed";"English";"United States"
"5e815773285d3883ba2fbbcf";"BRAC1_horiAL_1st300";0;29;913,839999993797;"A";1;0;NA;"A";"blue";"black";"parity";8;300;1;0;1;0;1;"24";"male";"I've studied at least one of these disciplines (school or university)";"Master degree";"right-handed";"English";"United States"
"5e815773285d3883ba2fbbcf";"BRAC1_horiAL_1st300";0;30;557,63500003377;"A";1;0;NA;"A";"red";"black";"parity";6;300;0;0;1;0;1;"24";"male";"I've studied at least one of these disciplines (school or university)";"Master degree";"right-handed";"English";"United States"
"5e815773285d3883ba2fbbcf";"BRAC1_horiAL_1st300";0;31;572,855000034906;"A";1;0;NA;"A";"blue";"black";"magnit";7;300;1;0;1;0;1;"24";"male";"I've studied at least one of these disciplines (school or university)";"Master degree";"right-handed";"English";"United States"
"5e815773285d3883ba2fbbcf";"BRAC1_horiAL_1st300";0;32;686,760000011418;"A";1;0;NA;"A";"blue";"black";"parity";6;300;1;0;0;0;1;"24";"male";"I've studied at least one of these disciplines (school or university)";"Master degree";"right-handed";"English";"United States"
"5e815773285d3883ba2fbbcf";"BRAC1_horiAL_1st300";0;33;911,034999997355;"L";1;0;NA;"L";"red";"black";"magnit";2;300;1;1;1;0;1;"24";"male";"I've studied at least one of these disciplines (school or university)";"Master degree";"right-handed";"English";"United States"
"5e815773285d3883ba2fbbcf";"BRAC1_horiAL_1st300";0;34;866,295000014361;"L";1;0;NA;"L";"red";"black";"parity";7;300;1;0;0;0;1;"24";"male";"I've studied at least one of these disciplines (school or university)";"Master degree";"right-handed";"English";"United States"
"5e815773285d3883ba2fbbcf";"BRAC1_horiAL_1st300";0;35;701,590000011493;"L";1;0;NA;"L";"blue";"black";"magnit";4;300;1;0;1;0;1;"24";"male";"I've studied at least one of these disciplines (school or university)";"Master degree";"right-handed";"English";"United States"
"5e815773285d3883ba2fbbcf";"BRAC1_horiAL_1st300";0;36;481,510000012349;"A";1;0;NA;"A";"red";"black";"magnit";8;300;0;1;1;0;1;"24";"male";"I've studied at least one of these disciplines (school or university)";"Master degree";"right-handed";"English";"United States"
"5e815773285d3883ba2fbbcf";"BRAC1_horiAL_1st300";0;37;1056,13000004087;"L";1;0;NA;"L";"red";"black";"parity";9;300;1;1;0;0;1;"24";"male";"I've studied at least one of these disciplines (school or university)";"Master degree";"right-handed";"English";"United States"
"5e815773285d3883ba2fbbcf";"BRAC1_horiAL_1st300";0;38;1372,54000001121;"A";1;0;NA;"A";"blue";"black";"parity";8;300;0;1;1;0;1;"24";"male";"I've studied at least one of these disciplines (school or university)";"Master degree";"right-handed";"English";"United States"
"5e815773285d3883ba2fbbcf";"BRAC1_horiAL_1st300";0;39;1501,88000005437;"L";1;0;NA;"L";"red";"black";"magnit";1;300;1;1;1;0;1;"24";"male";"I've studied at least one of these disciplines (school or university)";"Master degree";"right-handed";"English";"United States"
"5e815773285d3883ba2fbbcf";"BRAC1_horiAL_1st300";0;40;888,470000005327;"L";1;0;NA;"L";"blue";"black";"parity";9;300;1;0;1;0;1;"24";"male";"I've studied at least one of these disciplines (school or university)";"Master degree";"right-handed";"English";"United States"
"5e815773285d3883ba2fbbcf";"BRAC1_horiAL_1st300";0;41;1109,36499998206;"A";1;0;NA;"A";"blue";"black";"magnit";8;300;1;1;0;0;1;"24";"male";"I've studied at least one of these disciplines (school or university)";"Master degree";"right-handed";"English";"United States"
"5e815773285d3883ba2fbbcf";"BRAC1_horiAL_1st300";0;42;1047,57999995491;"L";1;0;NA;"L";"red";"black";"parity";7;300;1;1;1;0;1;"24";"male";"I've studied at least one of these disciplines (school or university)";"Master degree";"right-handed";"English";"United States"
"5e815773285d3883ba2fbbcf";"BRAC1_horiAL_1st300";0;43;952,105000033043;"A";1;0;NA;"A";"red";"black";"magnit";9;300;1;1;0;0;1;"24";"male";"I've studied at least one of these disciplines (school or university)";"Master degree";"right-handed";"English";"United States"
"5e815773285d3883ba2fbbcf";"BRAC1_horiAL_1st300";0;44;1594,93999998085;"L";1;0;NA;"L";"blue";"black";"parity";3;300;1;1;1;0;1;"24";"male";"I've studied at least one of these disciplines (school or university)";"Master degree";"right-handed";"English";"United States"
"5e815773285d3883ba2fbbcf";"BRAC1_horiAL_1st300";0;45;1234,1899999883;"L";1;0;NA;"L";"blue";"black";"magnit";1;300;1;0;0;0;1;"24";"male";"I've studied at least one of these disciplines (school or university)";"Master degree";"right-handed";"English";"United States"
"5e815773285d3883ba2fbbcf";"BRAC1_horiAL_1st300";0;46;881,585000024643;"A";1;0;NA;"A";"red";"black";"parity";6;300;1;1;1;0;1;"24";"male";"I've studied at least one of these disciplines (school or university)";"Master degree";"right-handed";"English";"United States"
"5e815773285d3883ba2fbbcf";"BRAC1_horiAL_1st300";0;47;710,980000032578;"L";1;0;NA;"L";"blue";"black";"parity";9;300;0;1;1;0;1;"24";"male";"I've studied at least one of these disciplines (school or university)";"Master degree";"right-handed";"English";"United States"
"5e815773285d3883ba2fbbcf";"BRAC1_horiAL_1st300";0;48;781,669999996666;"A";1;0;NA;"A";"red";"black";"magnit";6;300;1;1;1;0;1;"24";"male";"I've studied at least one of these disciplines (school or university)";"Master degree";"right-handed";"English";"United States"
"5e815773285d3883ba2fbbcf";"BRAC1_horiAL_1st300";0;49;947,310000017751;"L";1;0;NA;"L";"red";"black";"magnit";4;300;0;1;0;0;1;"24";"male";"I've studied at least one of these disciplines (school or university)";"Master degree";"right-handed";"English";"United States"
"5e815773285d3883ba2fbbcf";"BRAC1_horiAL_1st300";0;50;1213,41999998549;"A";1;0;NA;"A";"blue";"black";"magnit";7;300;0;1;1;0;1;"24";"male";"I've studied at least one of these disciplines (school or university)";"Master degree";"right-handed";"English";"United States"
"5e815773285d3883ba2fbbcf";"BRAC1_horiAL_1st300";0;51;922,365000005811;"L";1;0;NA;"L";"blue";"black";"magnit";4;300;0;1;0;0;1;"24";"male";"I've studied at least one of these disciplines (school or university)";"Master degree";"right-handed";"English";"United States"
"5e815773285d3883ba2fbbcf";"BRAC1_horiAL_1st300";0;52;509,66999999946;"L";1;0;NA;"L";"red";"black";"magnit";3;300;0;0;1;0;1;"24";"male";"I've studied at least one of these disciplines (school or university)";"Master degree";"right-handed";"English";"United States"
"5e815773285d3883ba2fbbcf";"BRAC1_horiAL_1st300";0;53;691,509999975096;"A";1;0;NA;"A";"blue";"black";"parity";4;300;1;1;1;0;1;"24";"male";"I've studied at least one of these disciplines (school or university)";"Master degree";"right-handed";"English";"United States"
"5e815773285d3883ba2fbbcf";"BRAC1_horiAL_1st300";0;54;1019,15999996709;"L";1;0;NA;"L";"red";"black";"parity";1;300;0;1;1;0;1;"24";"male";"I've studied at least one of these disciplines (school or university)";"Master degree";"right-handed";"English";"United States"
"5e815773285d3883ba2fbbcf";"BRAC1_horiAL_1st300";0;55;569,194999989122;"L";1;0;NA;"L";"blue";"black";"parity";3;300;0;0;1;0;1;"24";"male";"I've studied at least one of these disciplines (school or university)";"Master degree";"right-handed";"English";"United States"
"5e815773285d3883ba2fbbcf";"BRAC1_horiAL_1st300";0;56;635,680000006687;"A";1;0;NA;"A";"red";"black";"parity";4;300;0;1;1;0;1;"24";"male";"I've studied at least one of these disciplines (school or university)";"Master degree";"right-handed";"English";"United States"
"5e815773285d3883ba2fbbcf";"BRAC1_horiAL_1st300";0;57;1079,21500003431;"A";1;0;NA;"A";"blue";"black";"magnit";8;300;1;0;1;0;1;"24";"male";"I've studied at least one of these disciplines (school or university)";"Master degree";"right-handed";"English";"United States"
"5e815773285d3883ba2fbbcf";"BRAC1_horiAL_1st300";0;58;1986,54000001261;"L";1;0;NA;"L";"red";"black";"parity";3;300;1;1;1;0;1;"24";"male";"I've studied at least one of these disciplines (school or university)";"Master degree";"right-handed";"English";"United States"
"5e815773285d3883ba2fbbcf";"BRAC1_horiAL_1st300";0;59;1251,75000005402;"L";1;0;NA;"L";"red";"black";"parity";9;300;0;0;0;0;1;"24";"male";"I've studied at least one of these disciplines (school or university)";"Master degree";"right-handed";"English";"United States"
"5e815773285d3883ba2fbbcf";"BRAC1_horiAL_1st300";0;60;728,265000041574;"A";1;0;NA;"A";"red";"black";"magnit";7;300;1;1;0;0;1;"24";"male";"I've studied at least one of these disciplines (school or university)";"Master degree";"right-handed";"English";"United States"
"5e815773285d3883ba2fbbcf";"BRAC1_horiAL_1st300";0;61;440,234999987297;"L";1;0;NA;"L";"red";"black";"magnit";1;300;0;1;0;0;1;"24";"male";"I've studied at least one of these disciplines (school or university)";"Master degree";"right-handed";"English";"United States"
"5e815773285d3883ba2fbbcf";"BRAC1_horiAL_1st300";0;62;642,809999990277;"A";1;0;NA;"A";"red";"black";"parity";8;300;1;1;0;0;1;"24";"male";"I've studied at least one of these disciplines (school or university)";"Master degree";"right-handed";"English";"United States"
"5e815773285d3883ba2fbbcf";"BRAC1_horiAL_1st300";0;63;561,204999976326;"A";1;0;NA;"A";"red";"black";"parity";4;300;0;0;0;0;1;"24";"male";"I've studied at least one of these disciplines (school or university)";"Master degree";"right-handed";"English";"United States"
"5e815773285d3883ba2fbbcf";"BRAC1_horiAL_1st300";0;64;667,804999975488;"A";1;0;NA;"A";"blue";"black";"magnit";7;300;1;0;1;0;1;"24";"male";"I've studied at least one of these disciplines (school or university)";"Master degree";"right-handed";"English";"United States"
"5e815773285d3883ba2fbbcf";"BRAC1_horiAL_1st300";0;65;534,945000021253;"A";1;0;NA;"A";"blue";"black";"magnit";9;300;0;0;0;0;1;"24";"male";"I've studied at least one of these disciplines (school or university)";"Master degree";"right-handed";"English";"United States"
"5e815773285d3883ba2fbbcf";"BRAC1_horiAL_1st300";0;66;559,544999967329;"L";1;0;NA;"L";"blue";"black";"magnit";3;300;0;1;0;0;1;"24";"male";"I've studied at least one of these disciplines (school or university)";"Master degree";"right-handed";"English";"United States"
"5e815773285d3883ba2fbbcf";"BRAC1_horiAL_1st300";0;67;556,429999996908;"A";1;0;NA;"A";"blue";"black";"parity";2;300;1;1;0;0;1;"24";"male";"I've studied at least one of these disciplines (school or university)";"Master degree";"right-handed";"English";"United States"
"5e815773285d3883ba2fbbcf";"BRAC1_horiAL_1st300";0;68;710,265000001527;"L";1;0;NA;"L";"blue";"black";"parity";1;300;0;1;0;0;1;"24";"male";"I've studied at least one of these disciplines (school or university)";"Master degree";"right-handed";"English";"United States"
"5e815773285d3883ba2fbbcf";"BRAC1_horiAL_1st300";0;69;544,210000021849;"A";1;0;NA;"A";"red";"black";"parity";4;300;0;1;1;0;1;"24";"male";"I've studied at least one of these disciplines (school or university)";"Master degree";"right-handed";"English";"United States"
"5e815773285d3883ba2fbbcf";"BRAC1_horiAL_1st300";0;70;690,260000003036;"A";1;0;NA;"A";"blue";"black";"magnit";9;300;1;0;1;0;1;"24";"male";"I've studied at least one of these disciplines (school or university)";"Master degree";"right-handed";"English";"United States"
"5e815773285d3883ba2fbbcf";"BRAC1_horiAL_1st300";0;71;1069,51499998104;"A";1;0;NA;"A";"blue";"black";"parity";4;300;1;0;0;0;1;"24";"male";"I've studied at least one of these disciplines (school or university)";"Master degree";"right-handed";"English";"United States"
"5e815773285d3883ba2fbbcf";"BRAC1_horiAL_1st300";0;72;518,739999970421;"L";1;0;NA;"L";"red";"black";"magnit";1;300;1;1;1;0;1;"24";"male";"I've studied at least one of these disciplines (school or university)";"Master degree";"right-handed";"English";"United States"
"5e815773285d3883ba2fbbcf";"BRAC1_horiAL_1st300";0;73;498,410000000149;"A";1;0;NA;"A";"blue";"black";"magnit";6;300;0;1;1;0;1;"24";"male";"I've studied at least one of these disciplines (school or university)";"Master degree";"right-handed";"English";"United States"
"5e815773285d3883ba2fbbcf";"BRAC1_horiAL_1st300";0;74;1656,12500003772;"A";1;0;NA;"A";"red";"black";"magnit";9;300;0;0;1;0;1;"24";"male";"I've studied at least one of these disciplines (school or university)";"Master degree";"right-handed";"English";"United States"
"5e815773285d3883ba2fbbcf";"BRAC1_horiAL_1st300";0;75;988,245000015013;"A";1;0;NA;"A";"red";"black";"magnit";6;300;0;0;0;0;1;"24";"male";"I've studied at least one of these disciplines (school or university)";"Master degree";"right-handed";"English";"United States"
"5e815773285d3883ba2fbbcf";"BRAC1_horiAL_1st300";0;76;1152,78499998385;"A";1;0;NA;"A";"red";"black";"parity";2;300;1;0;0;0;1;"24";"male";"I've studied at least one of these disciplines (school or university)";"Master degree";"right-handed";"English";"United States"
"5e815773285d3883ba2fbbcf";"BRAC1_horiAL_1st300";0;77;1088,50000001257;"L";1;0;NA;"L";"blue";"black";"magnit";1;300;1;1;1;0;1;"24";"male";"I've studied at least one of these disciplines (school or university)";"Master degree";"right-handed";"English";"United States"
"5e815773285d3883ba2fbbcf";"BRAC1_horiAL_1st300";0;78;473,220000043511;"L";1;0;NA;"L";"red";"black";"parity";3;300;1;0;1;0;1;"24";"male";"I've studied at least one of these disciplines (school or university)";"Master degree";"right-handed";"English";"United States"
"5e815773285d3883ba2fbbcf";"BRAC1_horiAL_1st300";0;79;589,659999997821;"A";1;0;NA;"A";"red";"black";"magnit";6;300;1;1;0;0;1;"24";"male";"I've studied at least one of these disciplines (school or university)";"Master degree";"right-handed";"English";"United States"
"5e815773285d3883ba2fbbcf";"BRAC1_horiAL_1st300";0;80;1114,80000003939;"A";1;0;NA;"A";"blue";"black";"parity";4;300;1;0;1;0;1;"24";"male";"I've studied at least one of these disciplines (school or university)";"Master degree";"right-handed";"English";"United States"
"5e815773285d3883ba2fbbcf";"BRAC1_horiAL_1st300";0;81;620,649999997113;"A";1;0;NA;"A";"red";"black";"parity";8;300;0;0;1;0;1;"24";"male";"I've studied at least one of these disciplines (school or university)";"Master degree";"right-handed";"English";"United States"
"5e815773285d3883ba2fbbcf";"BRAC1_horiAL_1st300";0;82;971,599999989849;"A";1;0;NA;"A";"blue";"black";"parity";6;300;0;0;1;0;1;"24";"male";"I've studied at least one of these disciplines (school or university)";"Master degree";"right-handed";"English";"United States"
"5e815773285d3883ba2fbbcf";"BRAC1_horiAL_1st300";0;83;546,169999986887;"L";1;0;NA;"L";"red";"black";"magnit";2;300;1;1;1;0;1;"24";"male";"I've studied at least one of these disciplines (school or university)";"Master degree";"right-handed";"English";"United States"
"5e815773285d3883ba2fbbcf";"BRAC1_horiAL_1st300";0;84;982,170000032056;"A";1;0;NA;"A";"blue";"black";"parity";8;300;1;1;1;0;1;"24";"male";"I've studied at least one of these disciplines (school or university)";"Master degree";"right-handed";"English";"United States"
