"";"pp";"counterbalance";"blockNum";"trialNum";"rt";"Response";"Attempt";"error";"Timed.Out";"ANSWER";"cuecolor";"framecolor";"task";"stimulus";"cocoa";"task_R";"ANSWER_R";"cuecolor_R";"error_R"
"76";"5c02a0089649f9000153798b";"BRAC1_vertAA_1st0";0;0;1158,20499999973;"L";1;1;NA;"A";"red";"black";"parity";7;0;99;99;99;99
"80";"5c02a0089649f9000153798b";"BRAC1_vertAA_1st0";0;1;1473,53000000294;"A";1;1;NA;"L";"red";"black";"parity";8;0;0;1;0;1
"84";"5c02a0089649f9000153798b";"BRAC1_vertAA_1st0";0;2;625,134999994771;"A";1;0;NA;"A";"blue";"black";"magnit";6;0;1;1;1;1
"88";"5c02a0089649f9000153798b";"BRAC1_vertAA_1st0";0;3;611,089999998512;"L";1;0;NA;"L";"blue";"black";"magnit";1;0;0;1;0;0
"92";"5c02a0089649f9000153798b";"BRAC1_vertAA_1st0";0;4;1301,35500000324;"L";1;0;NA;"L";"blue";"black";"parity";4;0;1;0;0;0
"96";"5c02a0089649f9000153798b";"BRAC1_vertAA_1st0";0;5;813,184999999066;"L";1;0;NA;"L";"red";"black";"parity";6;0;0;0;1;0
"100";"5c02a0089649f9000153798b";"BRAC1_vertAA_1st0";0;6;574,025000001711;"L";1;0;NA;"L";"red";"black";"parity";8;0;0;0;0;0
"104";"5c02a0089649f9000153798b";"BRAC1_vertAA_1st0";0;7;844,209999995655;"L";1;0;NA;"L";"blue";"black";"parity";6;0;0;0;1;0
"108";"5c02a0089649f9000153798b";"BRAC1_vertAA_1st0";0;8;787,335000000894;"L";1;0;NA;"L";"red";"black";"parity";2;0;0;0;1;0
"112";"5c02a0089649f9000153798b";"BRAC1_vertAA_1st0";0;9;440,510000000359;"A";1;0;NA;"A";"blue";"black";"magnit";8;0;1;1;1;0
"116";"5c02a0089649f9000153798b";"BRAC1_vertAA_1st0";0;10;746,014999996987;"A";1;0;NA;"A";"red";"black";"magnit";7;0;0;0;1;0
"120";"5c02a0089649f9000153798b";"BRAC1_vertAA_1st0";0;11;482,819999997446;"L";1;0;NA;"L";"blue";"black";"magnit";4;0;0;1;1;0
"124";"5c02a0089649f9000153798b";"BRAC1_vertAA_1st0";0;12;1248,53499999881;"L";1;1;NA;"A";"red";"black";"parity";1;0;1;1;1;0
"128";"5c02a0089649f9000153798b";"BRAC1_vertAA_1st0";0;13;572,074999996403;"L";1;0;NA;"L";"blue";"black";"parity";6;0;0;1;1;1
"132";"5c02a0089649f9000153798b";"BRAC1_vertAA_1st0";0;14;460,059999997611;"A";1;0;NA;"A";"blue";"black";"parity";9;0;0;1;0;0
"136";"5c02a0089649f9000153798b";"BRAC1_vertAA_1st0";0;15;433,389999998326;"L";1;0;NA;"L";"blue";"black";"parity";2;0;0;1;0;0
"140";"5c02a0089649f9000153798b";"BRAC1_vertAA_1st0";0;16;423,305000003893;"A";1;0;NA;"A";"blue";"black";"parity";1;0;0;1;0;0
"144";"5c02a0089649f9000153798b";"BRAC1_vertAA_1st0";0;17;639,43499999732;"L";1;0;NA;"L";"blue";"black";"parity";4;0;0;1;0;0
"148";"5c02a0089649f9000153798b";"BRAC1_vertAA_1st0";0;18;559,775000001537;"L";1;0;NA;"L";"red";"black";"magnit";2;0;1;0;1;0
"152";"5c02a0089649f9000153798b";"BRAC1_vertAA_1st0";0;19;596,94500000478;"A";1;1;NA;"L";"blue";"black";"parity";8;0;1;0;1;0
"156";"5c02a0089649f9000153798b";"BRAC1_vertAA_1st0";0;20;506,689999994705;"L";1;0;NA;"L";"red";"black";"magnit";1;0;1;0;1;1
"160";"5c02a0089649f9000153798b";"BRAC1_vertAA_1st0";0;21;1531,71999999904;"A";1;0;NA;"A";"blue";"black";"parity";9;0;1;1;1;0
"164";"5c02a0089649f9000153798b";"BRAC1_vertAA_1st0";0;22;446,554999994987;"A";1;0;NA;"A";"blue";"black";"magnit";7;0;1;0;0;0
"168";"5c02a0089649f9000153798b";"BRAC1_vertAA_1st0";0;23;680,07999999827;"A";1;0;NA;"A";"red";"black";"parity";9;0;1;0;1;0
"172";"5c02a0089649f9000153798b";"BRAC1_vertAA_1st0";0;24;894,860000000335;"A";1;0;NA;"A";"blue";"black";"parity";3;0;0;0;1;0
"176";"5c02a0089649f9000153798b";"BRAC1_vertAA_1st0";0;25;479,859999999462;"A";1;0;NA;"A";"red";"black";"magnit";9;0;1;0;1;0
"180";"5c02a0089649f9000153798b";"BRAC1_vertAA_1st0";0;26;643,420000000333;"L";1;0;NA;"L";"red";"black";"parity";2;0;1;1;0;0
"184";"5c02a0089649f9000153798b";"BRAC1_vertAA_1st0";0;27;770,089999998163;"L";1;0;NA;"L";"red";"black";"parity";4;0;0;0;0;0
"188";"5c02a0089649f9000153798b";"BRAC1_vertAA_1st0";0;28;558,949999998731;"L";1;0;NA;"L";"red";"black";"magnit";3;0;1;0;0;0
"192";"5c02a0089649f9000153798b";"BRAC1_vertAA_1st0";0;29;809,119999998074;"A";1;1;NA;"L";"red";"black";"parity";4;0;1;0;0;0
"196";"5c02a0089649f9000153798b";"BRAC1_vertAA_1st0";0;30;790,209999999206;"A";1;0;NA;"A";"red";"black";"parity";3;0;0;1;0;1
"200";"5c02a0089649f9000153798b";"BRAC1_vertAA_1st0";0;31;535,194999996747;"A";1;0;NA;"A";"red";"black";"parity";1;0;0;0;0;0
"204";"5c02a0089649f9000153798b";"BRAC1_vertAA_1st0";0;32;551,325000000361;"L";1;0;NA;"L";"blue";"black";"magnit";2;0;1;1;1;0
"208";"5c02a0089649f9000153798b";"BRAC1_vertAA_1st0";0;33;723,344999998517;"L";1;0;NA;"L";"blue";"black";"parity";8;0;1;0;0;0
"212";"5c02a0089649f9000153798b";"BRAC1_vertAA_1st0";0;34;641,660000001139;"A";1;1;NA;"L";"blue";"black";"magnit";3;0;1;0;0;0
"216";"5c02a0089649f9000153798b";"BRAC1_vertAA_1st0";0;35;523,35000000312;"A";1;0;NA;"A";"red";"black";"magnit";7;0;0;1;1;1
"220";"5c02a0089649f9000153798b";"BRAC1_vertAA_1st0";0;36;1538,32500000135;"L";1;0;NA;"L";"red";"black";"magnit";3;0;0;1;0;0
"224";"5c02a0089649f9000153798b";"BRAC1_vertAA_1st0";0;37;452,224999993632;"A";1;0;NA;"A";"blue";"black";"magnit";7;0;0;1;1;0
"228";"5c02a0089649f9000153798b";"BRAC1_vertAA_1st0";0;38;495,484999999462;"L";1;0;NA;"L";"blue";"black";"magnit";3;0;0;1;0;0
"232";"5c02a0089649f9000153798b";"BRAC1_vertAA_1st0";0;39;621,869999995397;"A";1;0;NA;"A";"red";"black";"parity";9;0;1;1;1;0
"236";"5c02a0089649f9000153798b";"BRAC1_vertAA_1st0";0;40;2501,10000000001;NA;NA;1;1;"A";"blue";"black";"magnit";7;0;1;0;1;0
"240";"5c02a0089649f9000153798b";"BRAC1_vertAA_1st0";0;41;495,305000004009;"A";1;0;NA;"A";"blue";"black";"magnit";8;0;0;0;0;1
"244";"5c02a0089649f9000153798b";"BRAC1_vertAA_1st0";0;42;594,529999994847;"L";1;1;NA;"A";"red";"black";"parity";3;0;1;0;1;0
"248";"5c02a0089649f9000153798b";"BRAC1_vertAA_1st0";0;43;477,685000005295;"A";1;0;NA;"A";"blue";"black";"magnit";9;0;1;0;1;1
"252";"5c02a0089649f9000153798b";"BRAC1_vertAA_1st0";0;44;565,824999997858;"A";1;0;NA;"A";"red";"black";"magnit";6;0;0;0;1;0
"256";"5c02a0089649f9000153798b";"BRAC1_vertAA_1st0";0;45;380,694999999832;"A";1;1;NA;"L";"red";"black";"magnit";1;0;0;1;0;0
"260";"5c02a0089649f9000153798b";"BRAC1_vertAA_1st0";0;46;595,809999998892;"A";1;0;NA;"A";"blue";"black";"parity";9;0;1;1;1;1
"264";"5c02a0089649f9000153798b";"BRAC1_vertAA_1st0";0;47;440,269999999146;"A";1;0;NA;"A";"blue";"black";"magnit";6;0;1;0;0;0
"268";"5c02a0089649f9000153798b";"BRAC1_vertAA_1st0";0;48;1302,52499999915;"A";1;0;NA;"A";"blue";"black";"parity";7;0;1;0;0;0
"272";"5c02a0089649f9000153798b";"BRAC1_vertAA_1st0";0;49;513,014999996813;"L";1;0;NA;"L";"red";"black";"magnit";3;0;1;1;1;0
"276";"5c02a0089649f9000153798b";"BRAC1_vertAA_1st0";0;50;649,364999997488;"L";1;0;NA;"L";"blue";"black";"parity";6;0;1;0;1;0
"280";"5c02a0089649f9000153798b";"BRAC1_vertAA_1st0";0;51;644,189999999071;"L";1;0;NA;"L";"blue";"black";"magnit";1;0;1;0;0;0
"284";"5c02a0089649f9000153798b";"BRAC1_vertAA_1st0";0;52;1179,64000000211;"L";1;0;NA;"L";"red";"black";"parity";6;0;1;0;1;0
"288";"5c02a0089649f9000153798b";"BRAC1_vertAA_1st0";0;53;817,474999996193;"A";1;0;NA;"A";"red";"black";"magnit";9;0;1;1;0;0
"292";"5c02a0089649f9000153798b";"BRAC1_vertAA_1st0";0;54;462,885000000824;"L";1;0;NA;"L";"red";"black";"magnit";1;0;0;1;0;0
"296";"5c02a0089649f9000153798b";"BRAC1_vertAA_1st0";0;55;700,044999997772;"L";1;0;NA;"L";"blue";"black";"magnit";2;0;0;0;1;0
"300";"5c02a0089649f9000153798b";"BRAC1_vertAA_1st0";0;56;676,420000003418;"A";1;0;NA;"A";"blue";"black";"parity";3;0;1;1;0;0
"304";"5c02a0089649f9000153798b";"BRAC1_vertAA_1st0";0;57;424,310000002151;"L";1;0;NA;"L";"red";"black";"magnit";2;0;1;1;1;0
"308";"5c02a0089649f9000153798b";"BRAC1_vertAA_1st0";0;58;454,969999998866;"A";1;0;NA;"A";"red";"black";"magnit";8;0;0;1;0;0
"312";"5c02a0089649f9000153798b";"BRAC1_vertAA_1st0";0;59;435,640000003332;"L";1;0;NA;"L";"red";"black";"magnit";2;0;0;1;0;0
"316";"5c02a0089649f9000153798b";"BRAC1_vertAA_1st0";0;60;915,254999999888;"L";1;0;NA;"L";"blue";"black";"magnit";4;0;0;0;1;0
"320";"5c02a0089649f9000153798b";"BRAC1_vertAA_1st0";0;61;1092,97499999957;"L";1;0;NA;"L";"red";"black";"parity";8;0;1;0;1;0
"324";"5c02a0089649f9000153798b";"BRAC1_vertAA_1st0";0;62;576,750000000175;"L";1;1;NA;"A";"blue";"black";"parity";1;0;0;1;1;0
"328";"5c02a0089649f9000153798b";"BRAC1_vertAA_1st0";0;63;885,089999996126;"A";1;0;NA;"A";"red";"black";"parity";3;0;0;0;1;1
"332";"5c02a0089649f9000153798b";"BRAC1_vertAA_1st0";0;64;529,835000001185;"A";1;0;NA;"A";"red";"black";"magnit";9;0;1;0;0;0
"336";"5c02a0089649f9000153798b";"BRAC1_vertAA_1st0";0;65;951,969999994617;"L";1;1;NA;"A";"red";"black";"parity";1;0;1;0;0;0
"340";"5c02a0089649f9000153798b";"BRAC1_vertAA_1st0";0;66;485,749999999825;"A";1;0;NA;"A";"blue";"black";"magnit";8;0;1;0;1;1
"344";"5c02a0089649f9000153798b";"BRAC1_vertAA_1st0";0;67;293,165000002773;"A";1;0;NA;"A";"blue";"black";"magnit";6;0;0;0;0;0
"348";"5c02a0089649f9000153798b";"BRAC1_vertAA_1st0";0;68;740,975000000617;"A";1;0;NA;"A";"blue";"black";"parity";1;0;1;0;0;0
"352";"5c02a0089649f9000153798b";"BRAC1_vertAA_1st0";0;69;499,589999999444;"L";1;0;NA;"L";"red";"black";"parity";6;0;0;1;1;0
"356";"5c02a0089649f9000153798b";"BRAC1_vertAA_1st0";0;70;699,710000000778;"A";1;0;NA;"A";"red";"black";"magnit";7;0;1;1;0;0
"360";"5c02a0089649f9000153798b";"BRAC1_vertAA_1st0";0;71;443,120000003546;"A";1;0;NA;"A";"blue";"black";"magnit";9;0;0;0;1;0
"364";"5c02a0089649f9000153798b";"BRAC1_vertAA_1st0";0;72;518,015000001469;"L";1;0;NA;"L";"blue";"black";"parity";2;0;1;1;0;0
"368";"5c02a0089649f9000153798b";"BRAC1_vertAA_1st0";0;73;432,049999995797;"A";1;0;NA;"A";"blue";"black";"magnit";9;0;1;1;0;0
"372";"5c02a0089649f9000153798b";"BRAC1_vertAA_1st0";0;74;726,920000000973;"L";1;0;NA;"L";"red";"black";"parity";2;0;1;1;1;0
"376";"5c02a0089649f9000153798b";"BRAC1_vertAA_1st0";0;75;453,809999999066;"A";1;0;NA;"A";"red";"black";"magnit";6;0;1;1;0;0
"380";"5c02a0089649f9000153798b";"BRAC1_vertAA_1st0";0;76;514,489999994112;"L";1;0;NA;"L";"blue";"black";"magnit";4;0;0;1;1;0
"384";"5c02a0089649f9000153798b";"BRAC1_vertAA_1st0";0;77;663,479999995616;"L";1;0;NA;"L";"blue";"black";"magnit";1;0;0;0;0;0
"388";"5c02a0089649f9000153798b";"BRAC1_vertAA_1st0";0;78;657,359999997425;"L";1;0;NA;"L";"red";"black";"magnit";4;0;0;0;1;0
"392";"5c02a0089649f9000153798b";"BRAC1_vertAA_1st0";0;79;574,955000003683;"A";1;0;NA;"A";"red";"black";"magnit";8;0;0;1;0;0
"396";"5c02a0089649f9000153798b";"BRAC1_vertAA_1st0";0;80;408,759999998438;"A";1;1;NA;"L";"blue";"black";"magnit";3;0;0;1;1;0
"400";"5c02a0089649f9000153798b";"BRAC1_vertAA_1st0";0;81;622,914999999921;"A";1;0;NA;"A";"red";"black";"magnit";8;0;0;1;1;1
"404";"5c02a0089649f9000153798b";"BRAC1_vertAA_1st0";0;82;514,875000000757;"L";1;0;NA;"L";"blue";"black";"parity";2;0;1;1;1;0
"408";"5c02a0089649f9000153798b";"BRAC1_vertAA_1st0";0;83;460,075000002689;"A";1;0;NA;"A";"blue";"black";"parity";7;0;0;1;0;0
"412";"5c02a0089649f9000153798b";"BRAC1_vertAA_1st0";0;84;1454,90499999869;"L";1;0;NA;"L";"blue";"black";"parity";4;0;0;1;0;0
"416";"5c02a0089649f9000153798b";"BRAC1_vertAA_1st0";0;85;1906,4800000051;"A";1;0;NA;"A";"red";"black";"parity";7;0;0;1;1;0
"420";"5c02a0089649f9000153798b";"BRAC1_vertAA_1st0";0;86;469,709999997576;"L";1;0;NA;"L";"blue";"black";"magnit";2;0;1;1;1;0
"424";"5c02a0089649f9000153798b";"BRAC1_vertAA_1st0";0;87;563,394999997399;"A";1;0;NA;"A";"red";"black";"magnit";6;0;0;1;1;0
"428";"5c02a0089649f9000153798b";"BRAC1_vertAA_1st0";0;88;500,045000000682;"A";1;1;NA;"L";"red";"black";"parity";4;0;1;1;0;0
"432";"5c02a0089649f9000153798b";"BRAC1_vertAA_1st0";0;89;518,570000000182;"L";1;1;NA;"A";"blue";"black";"parity";7;0;0;1;1;1
"436";"5c02a0089649f9000153798b";"BRAC1_vertAA_1st0";0;90;510,354999998526;"L";1;0;NA;"L";"red";"black";"magnit";4;0;1;1;1;1
"440";"5c02a0089649f9000153798b";"BRAC1_vertAA_1st0";0;91;1356,98000000411;"A";1;0;NA;"A";"red";"black";"parity";7;0;1;1;0;0
"444";"5c02a0089649f9000153798b";"BRAC1_vertAA_1st0";0;92;460,949999993318;"L";1;0;NA;"L";"red";"black";"magnit";4;0;1;1;0;0
"448";"5c02a0089649f9000153798b";"BRAC1_vertAA_1st0";0;93;835,800000000745;"L";1;0;NA;"L";"blue";"black";"parity";8;0;1;0;1;0
"452";"5c02a0089649f9000153798b";"BRAC1_vertAA_1st0";0;94;1753,1999999992;"A";1;0;NA;"A";"blue";"black";"parity";3;0;0;1;0;0
"456";"5c02a0089649f9000153798b";"BRAC1_vertAA_1st0";0;95;635,264999997162;"A";1;0;NA;"A";"red";"black";"parity";9;0;0;0;1;0
"461";"5c02a0089649f9000153798b";"BRAC1_vertAA_1st0";1;0;581,624999998894;"A";1;0;NA;"A";"blue";"black";"magnit";9;300;99;99;99;99
"465";"5c02a0089649f9000153798b";"BRAC1_vertAA_1st0";1;1;710,044999999809;"L";1;1;NA;"A";"red";"black";"parity";1;300;1;0;1;0
"469";"5c02a0089649f9000153798b";"BRAC1_vertAA_1st0";1;2;423,905000003288;"A";1;0;NA;"A";"red";"black";"magnit";9;300;1;0;0;1
"473";"5c02a0089649f9000153798b";"BRAC1_vertAA_1st0";1;3;778,200000000652;"L";1;0;NA;"L";"blue";"black";"parity";8;300;1;1;1;0
"477";"5c02a0089649f9000153798b";"BRAC1_vertAA_1st0";1;4;305,860000000393;"A";1;0;NA;"A";"blue";"black";"magnit";7;300;1;1;0;0
"481";"5c02a0089649f9000153798b";"BRAC1_vertAA_1st0";1;5;605,539999996836;"L";1;0;NA;"L";"red";"black";"magnit";3;300;0;1;1;0
"485";"5c02a0089649f9000153798b";"BRAC1_vertAA_1st0";1;6;1170,95999999583;"A";1;0;NA;"A";"red";"black";"parity";7;300;1;1;0;0
"489";"5c02a0089649f9000153798b";"BRAC1_vertAA_1st0";1;7;560,86000000505;"A";1;0;NA;"A";"blue";"black";"magnit";8;300;1;0;1;0
"493";"5c02a0089649f9000153798b";"BRAC1_vertAA_1st0";1;8;785,105000002659;"L";1;0;NA;"L";"blue";"black";"parity";4;300;1;1;0;0
"497";"5c02a0089649f9000153798b";"BRAC1_vertAA_1st0";1;9;1134,28500000009;"A";1;0;NA;"A";"blue";"black";"parity";3;300;0;1;0;0
"501";"5c02a0089649f9000153798b";"BRAC1_vertAA_1st0";1;10;608,914999997069;"L";1;0;NA;"L";"red";"black";"parity";8;300;0;1;1;0
"505";"5c02a0089649f9000153798b";"BRAC1_vertAA_1st0";1;11;666,134999999485;"L";1;0;NA;"L";"red";"black";"parity";2;300;0;0;0;0
"509";"5c02a0089649f9000153798b";"BRAC1_vertAA_1st0";1;12;564,534999997704;"A";1;0;NA;"A";"blue";"black";"parity";3;300;0;1;1;0
"513";"5c02a0089649f9000153798b";"BRAC1_vertAA_1st0";1;13;421,60000000149;"A";1;0;NA;"A";"red";"black";"magnit";6;300;1;0;1;0
"517";"5c02a0089649f9000153798b";"BRAC1_vertAA_1st0";1;14;445,545000002312;"L";1;0;NA;"L";"red";"black";"magnit";2;300;0;1;0;0
"521";"5c02a0089649f9000153798b";"BRAC1_vertAA_1st0";1;15;570,570000003499;"A";1;0;NA;"A";"red";"black";"magnit";8;300;0;1;0;0
"525";"5c02a0089649f9000153798b";"BRAC1_vertAA_1st0";1;16;665,345000001253;"L";1;0;NA;"L";"blue";"black";"magnit";4;300;0;1;1;0
"529";"5c02a0089649f9000153798b";"BRAC1_vertAA_1st0";1;17;1071,58000000345;"L";1;0;NA;"L";"blue";"black";"parity";2;300;1;0;0;0
"533";"5c02a0089649f9000153798b";"BRAC1_vertAA_1st0";1;18;604,019999998854;"L";1;0;NA;"L";"red";"black";"parity";4;300;0;0;1;0
"537";"5c02a0089649f9000153798b";"BRAC1_vertAA_1st0";1;19;1375,16499999765;"L";1;0;NA;"L";"blue";"black";"magnit";3;300;1;0;1;0
"541";"5c02a0089649f9000153798b";"BRAC1_vertAA_1st0";1;20;1561,20999999985;"L";1;0;NA;"L";"blue";"black";"parity";2;300;1;0;0;0
"545";"5c02a0089649f9000153798b";"BRAC1_vertAA_1st0";1;21;528,830000002927;"A";1;0;NA;"A";"red";"black";"magnit";9;300;1;1;1;0
"549";"5c02a0089649f9000153798b";"BRAC1_vertAA_1st0";1;22;1494,96999999974;"L";1;1;NA;"A";"red";"black";"parity";3;300;1;0;0;0
"553";"5c02a0089649f9000153798b";"BRAC1_vertAA_1st0";1;23;835,405000005267;"L";1;0;NA;"L";"blue";"black";"magnit";4;300;1;1;1;1
"557";"5c02a0089649f9000153798b";"BRAC1_vertAA_1st0";1;24;441,780000001017;"L";1;0;NA;"L";"red";"black";"magnit";3;300;0;0;1;0
"561";"5c02a0089649f9000153798b";"BRAC1_vertAA_1st0";1;25;536,400000004505;"L";1;0;NA;"L";"red";"black";"magnit";2;300;0;0;0;0
"565";"5c02a0089649f9000153798b";"BRAC1_vertAA_1st0";1;26;675,25499999465;"L";1;0;NA;"L";"red";"black";"parity";4;300;1;0;0;0
"569";"5c02a0089649f9000153798b";"BRAC1_vertAA_1st0";1;27;510,330000004615;"L";1;0;NA;"L";"blue";"black";"magnit";3;300;1;0;1;0
"573";"5c02a0089649f9000153798b";"BRAC1_vertAA_1st0";1;28;417,114999996556;"A";1;0;NA;"A";"blue";"black";"magnit";6;300;0;1;0;0
"577";"5c02a0089649f9000153798b";"BRAC1_vertAA_1st0";1;29;772,779999999329;"A";1;0;NA;"A";"blue";"black";"parity";3;300;1;0;0;0
"581";"5c02a0089649f9000153798b";"BRAC1_vertAA_1st0";1;30;649,434999999357;"A";1;0;NA;"A";"blue";"black";"parity";7;300;0;0;0;0
"585";"5c02a0089649f9000153798b";"BRAC1_vertAA_1st0";1;31;784,909999994852;"A";1;0;NA;"A";"red";"black";"parity";1;300;0;0;1;0
"589";"5c02a0089649f9000153798b";"BRAC1_vertAA_1st0";1;32;453,02499999525;"A";1;0;NA;"A";"blue";"black";"magnit";8;300;1;0;1;0
"593";"5c02a0089649f9000153798b";"BRAC1_vertAA_1st0";1;33;1278,91000000091;"L";1;0;NA;"L";"blue";"black";"magnit";4;300;0;1;0;0
"597";"5c02a0089649f9000153798b";"BRAC1_vertAA_1st0";1;34;835,605000000214;"L";1;0;NA;"L";"blue";"black";"parity";8;300;1;0;0;0
"601";"5c02a0089649f9000153798b";"BRAC1_vertAA_1st0";1;35;455,33499999874;"A";1;0;NA;"A";"red";"black";"magnit";7;300;1;1;1;0
"605";"5c02a0089649f9000153798b";"BRAC1_vertAA_1st0";1;36;1037,75500000484;"L";1;0;NA;"L";"blue";"black";"parity";2;300;1;1;1;0
"609";"5c02a0089649f9000153798b";"BRAC1_vertAA_1st0";1;37;703,15500000288;"A";1;1;NA;"L";"red";"black";"parity";6;300;0;0;1;0
"613";"5c02a0089649f9000153798b";"BRAC1_vertAA_1st0";1;38;418,644999997923;"L";1;0;NA;"L";"red";"black";"magnit";2;300;1;0;0;1
"617";"5c02a0089649f9000153798b";"BRAC1_vertAA_1st0";1;39;385,290000005625;"A";1;0;NA;"A";"red";"black";"magnit";9;300;0;1;0;0
"621";"5c02a0089649f9000153798b";"BRAC1_vertAA_1st0";1;40;488,035000002128;"L";1;0;NA;"L";"blue";"black";"magnit";2;300;0;1;1;0
"625";"5c02a0089649f9000153798b";"BRAC1_vertAA_1st0";1;41;432,619999999588;"A";1;0;NA;"A";"red";"black";"magnit";7;300;0;1;1;0
"629";"5c02a0089649f9000153798b";"BRAC1_vertAA_1st0";1;42;596,029999993334;"L";1;0;NA;"L";"blue";"black";"magnit";1;300;0;1;1;0
"633";"5c02a0089649f9000153798b";"BRAC1_vertAA_1st0";1;43;515,954999995301;"A";1;1;NA;"L";"blue";"black";"magnit";2;300;0;0;0;0
"637";"5c02a0089649f9000153798b";"BRAC1_vertAA_1st0";1;44;2093,66500000033;"L";1;0;NA;"L";"red";"black";"parity";8;300;1;0;1;1
"641";"5c02a0089649f9000153798b";"BRAC1_vertAA_1st0";1;45;468,620000006922;"A";1;0;NA;"A";"blue";"black";"magnit";9;300;1;1;1;0
"645";"5c02a0089649f9000153798b";"BRAC1_vertAA_1st0";1;46;1218,71999999712;"A";1;0;NA;"A";"red";"black";"magnit";7;300;0;0;1;0
"649";"5c02a0089649f9000153798b";"BRAC1_vertAA_1st0";1;47;766,040000002249;"L";1;0;NA;"L";"blue";"black";"parity";6;300;1;1;1;0
"653";"5c02a0089649f9000153798b";"BRAC1_vertAA_1st0";1;48;21,7350000020815;"A";1;1;NA;"L";"blue";"black";"magnit";2;300;1;0;0;0
"657";"5c02a0089649f9000153798b";"BRAC1_vertAA_1st0";1;49;852,525000002061;"L";1;0;NA;"L";"blue";"black";"parity";6;300;1;0;0;1
"661";"5c02a0089649f9000153798b";"BRAC1_vertAA_1st0";1;50;515,229999997246;"L";1;0;NA;"L";"red";"black";"magnit";4;300;1;0;1;0
"665";"5c02a0089649f9000153798b";"BRAC1_vertAA_1st0";1;51;812,084999997751;"A";1;0;NA;"A";"red";"black";"parity";9;300;1;1;0;0
"669";"5c02a0089649f9000153798b";"BRAC1_vertAA_1st0";1;52;923,740000005637;"A";1;0;NA;"A";"blue";"black";"parity";1;300;0;0;1;0
"673";"5c02a0089649f9000153798b";"BRAC1_vertAA_1st0";1;53;469,46999999648;"A";1;0;NA;"A";"blue";"black";"magnit";9;300;1;0;0;0
"677";"5c02a0089649f9000153798b";"BRAC1_vertAA_1st0";1;54;1041,89999999653;"L";1;0;NA;"L";"red";"black";"parity";8;300;1;1;1;0
"681";"5c02a0089649f9000153798b";"BRAC1_vertAA_1st0";1;55;614,164999999106;"A";1;0;NA;"A";"blue";"black";"parity";9;300;0;1;1;0
"685";"5c02a0089649f9000153798b";"BRAC1_vertAA_1st0";1;56;1754,75500000175;"L";1;0;NA;"L";"red";"black";"parity";4;300;0;1;1;0
"689";"5c02a0089649f9000153798b";"BRAC1_vertAA_1st0";1;57;412,489999995101;"A";1;0;NA;"A";"red";"black";"magnit";6;300;1;1;0;0
"693";"5c02a0089649f9000153798b";"BRAC1_vertAA_1st0";1;58;467,680000001565;"L";1;0;NA;"L";"red";"black";"magnit";4;300;0;1;0;0
"697";"5c02a0089649f9000153798b";"BRAC1_vertAA_1st0";1;59;2501,09999999998;NA;NA;1;1;"L";"blue";"black";"magnit";1;300;0;0;1;0
"701";"5c02a0089649f9000153798b";"BRAC1_vertAA_1st0";1;60;442,150000002468;"L";1;1;NA;"A";"blue";"black";"magnit";7;300;0;1;0;1
"705";"5c02a0089649f9000153798b";"BRAC1_vertAA_1st0";1;61;461,815000002272;"L";1;0;NA;"L";"red";"black";"magnit";4;300;0;1;1;1
"709";"5c02a0089649f9000153798b";"BRAC1_vertAA_1st0";1;62;427,599999995437;"A";1;0;NA;"A";"blue";"black";"magnit";7;300;0;1;1;0
"713";"5c02a0089649f9000153798b";"BRAC1_vertAA_1st0";1;63;658,649999997579;"A";1;0;NA;"A";"red";"black";"parity";1;300;1;0;1;0
"717";"5c02a0089649f9000153798b";"BRAC1_vertAA_1st0";1;64;496,984999997891;"L";1;0;NA;"L";"red";"black";"magnit";3;300;1;1;0;0
"721";"5c02a0089649f9000153798b";"BRAC1_vertAA_1st0";1;65;910,185000000522;"L";1;0;NA;"L";"red";"black";"parity";6;300;1;0;0;0
"725";"5c02a0089649f9000153798b";"BRAC1_vertAA_1st0";1;66;567,195000003325;"A";1;0;NA;"A";"red";"black";"parity";3;300;0;1;0;0
"729";"5c02a0089649f9000153798b";"BRAC1_vertAA_1st0";1;67;447,929999994813;"A";1;0;NA;"A";"red";"black";"magnit";6;300;1;0;0;0
"733";"5c02a0089649f9000153798b";"BRAC1_vertAA_1st0";1;68;71,4900000020862;"L";1;0;NA;"L";"blue";"black";"parity";8;300;1;1;1;0
"737";"5c02a0089649f9000153798b";"BRAC1_vertAA_1st0";1;69;629,794999993523;"L";1;0;NA;"L";"red";"black";"parity";2;300;0;0;1;0
"741";"5c02a0089649f9000153798b";"BRAC1_vertAA_1st0";1;70;417,155000002822;"A";1;0;NA;"A";"red";"black";"magnit";8;300;1;1;0;0
"745";"5c02a0089649f9000153798b";"BRAC1_vertAA_1st0";1;71;680,529999997816;"L";1;0;NA;"L";"red";"black";"parity";2;300;1;1;0;0
"749";"5c02a0089649f9000153798b";"BRAC1_vertAA_1st0";1;72;541,969999998342;"L";1;0;NA;"L";"blue";"black";"magnit";3;300;1;0;1;0
"753";"5c02a0089649f9000153798b";"BRAC1_vertAA_1st0";1;73;477,32000000542;"A";1;1;NA;"L";"blue";"black";"magnit";1;300;0;0;0;0
"757";"5c02a0089649f9000153798b";"BRAC1_vertAA_1st0";1;74;1731,03000000259;"A";1;0;NA;"A";"blue";"black";"parity";7;300;1;1;0;1
"761";"5c02a0089649f9000153798b";"BRAC1_vertAA_1st0";1;75;1094,27000000142;"L";1;0;NA;"L";"red";"black";"parity";6;300;0;1;1;0
"765";"5c02a0089649f9000153798b";"BRAC1_vertAA_1st0";1;76;674,790000004461;"A";1;0;NA;"A";"blue";"black";"parity";1;300;0;1;1;0
"769";"5c02a0089649f9000153798b";"BRAC1_vertAA_1st0";1;77;1684,39499999653;"A";1;0;NA;"A";"red";"black";"parity";9;300;0;0;1;0
"773";"5c02a0089649f9000153798b";"BRAC1_vertAA_1st0";1;78;678,889999995707;"A";1;0;NA;"A";"red";"black";"parity";7;300;0;0;0;0
"777";"5c02a0089649f9000153798b";"BRAC1_vertAA_1st0";1;79;441,449999998556;"L";1;0;NA;"L";"blue";"black";"parity";4;300;0;1;1;0
"781";"5c02a0089649f9000153798b";"BRAC1_vertAA_1st0";1;80;711,670000004349;"A";1;0;NA;"A";"red";"black";"parity";7;300;0;1;1;0
"785";"5c02a0089649f9000153798b";"BRAC1_vertAA_1st0";1;81;416,174999998533;"L";1;0;NA;"L";"red";"black";"magnit";1;300;1;1;0;0
"789";"5c02a0089649f9000153798b";"BRAC1_vertAA_1st0";1;82;414,299999996671;"A";1;0;NA;"A";"blue";"black";"magnit";6;300;0;1;1;0
"793";"5c02a0089649f9000153798b";"BRAC1_vertAA_1st0";1;83;471,654999993858;"L";1;1;NA;"A";"blue";"black";"parity";7;300;1;0;0;0
"797";"5c02a0089649f9000153798b";"BRAC1_vertAA_1st0";1;84;63,8350000008941;"L";1;1;NA;"A";"blue";"black";"parity";9;300;0;0;0;1
"801";"5c02a0089649f9000153798b";"BRAC1_vertAA_1st0";1;85;292,625000001863;"A";1;0;NA;"A";"red";"black";"parity";3;300;0;0;1;1
"805";"5c02a0089649f9000153798b";"BRAC1_vertAA_1st0";1;86;847,5550000004;"L";1;0;NA;"L";"blue";"black";"parity";6;300;0;1;1;0
"809";"5c02a0089649f9000153798b";"BRAC1_vertAA_1st0";1;87;573,879999996279;"A";1;0;NA;"A";"blue";"black";"parity";1;300;0;1;0;0
"813";"5c02a0089649f9000153798b";"BRAC1_vertAA_1st0";1;88;468,180000003427;"L";1;0;NA;"L";"blue";"black";"parity";4;300;0;1;0;0
"817";"5c02a0089649f9000153798b";"BRAC1_vertAA_1st0";1;89;634,564999993076;"A";1;0;NA;"A";"red";"black";"magnit";8;300;1;1;1;0
"821";"5c02a0089649f9000153798b";"BRAC1_vertAA_1st0";1;90;545,165000003297;"A";1;0;NA;"A";"red";"black";"parity";9;300;1;0;0;0
"825";"5c02a0089649f9000153798b";"BRAC1_vertAA_1st0";1;91;414,93499999342;"L";1;0;NA;"L";"red";"black";"magnit";1;300;1;1;0;0
"829";"5c02a0089649f9000153798b";"BRAC1_vertAA_1st0";1;92;413,554999999236;"A";1;0;NA;"A";"blue";"black";"magnit";6;300;0;1;1;0
"833";"5c02a0089649f9000153798b";"BRAC1_vertAA_1st0";1;93;386,76499999559;"L";1;0;NA;"L";"red";"black";"magnit";1;300;0;1;1;0
"837";"5c02a0089649f9000153798b";"BRAC1_vertAA_1st0";1;94;1322,11000000103;"A";1;0;NA;"A";"blue";"black";"parity";9;300;1;1;1;0
"841";"5c02a0089649f9000153798b";"BRAC1_vertAA_1st0";1;95;423,029999998049;"A";1;0;NA;"A";"blue";"black";"magnit";8;300;1;0;0;0
"846";"5c02a0089649f9000153798b";"BRAC1_vertAA_1st0";2;0;924,07000000088;"A";1;0;NA;"A";"blue";"black";"parity";7;0;99;99;99;99
"850";"5c02a0089649f9000153798b";"BRAC1_vertAA_1st0";2;1;597,844999996596;"A";1;0;NA;"A";"blue";"black";"parity";3;0;0;0;0;0
"854";"5c02a0089649f9000153798b";"BRAC1_vertAA_1st0";2;2;146,795000000624;"A";1;1;NA;"L";"blue";"black";"parity";2;0;0;1;0;0
"858";"5c02a0089649f9000153798b";"BRAC1_vertAA_1st0";2;3;400,604999995325;"A";1;0;NA;"A";"red";"black";"magnit";9;0;1;1;1;1
"862";"5c02a0089649f9000153798b";"BRAC1_vertAA_1st0";2;4;456,439999994473;"A";1;0;NA;"A";"red";"black";"magnit";8;0;0;0;0;0
"866";"5c02a0089649f9000153798b";"BRAC1_vertAA_1st0";2;5;531,605000003823;"L";1;0;NA;"L";"red";"black";"magnit";3;0;0;1;0;0
"870";"5c02a0089649f9000153798b";"BRAC1_vertAA_1st0";2;6;774,170000004233;"L";1;0;NA;"L";"blue";"black";"magnit";4;0;0;0;1;0
"874";"5c02a0089649f9000153798b";"BRAC1_vertAA_1st0";2;7;571,120000000577;"A";1;0;NA;"A";"blue";"black";"magnit";7;0;0;1;0;0
"878";"5c02a0089649f9000153798b";"BRAC1_vertAA_1st0";2;8;685,855000003474;"A";1;0;NA;"A";"blue";"black";"parity";1;0;1;0;0;0
"882";"5c02a0089649f9000153798b";"BRAC1_vertAA_1st0";2;9;487,874999998952;"L";1;0;NA;"L";"red";"black";"parity";6;0;0;1;1;0
"886";"5c02a0089649f9000153798b";"BRAC1_vertAA_1st0";2;10;1145,30999999994;"A";1;1;NA;"L";"blue";"black";"parity";8;0;0;0;1;0
"890";"5c02a0089649f9000153798b";"BRAC1_vertAA_1st0";2;11;730,584999997634;"L";1;0;NA;"L";"red";"black";"parity";4;0;0;0;1;1
"894";"5c02a0089649f9000153798b";"BRAC1_vertAA_1st0";2;12;557,270000004675;"A";1;0;NA;"A";"blue";"black";"magnit";6;0;1;1;1;0
"898";"5c02a0089649f9000153798b";"BRAC1_vertAA_1st0";2;13;719,360000002896;"L";1;0;NA;"L";"blue";"black";"magnit";4;0;0;1;0;0
"902";"5c02a0089649f9000153798b";"BRAC1_vertAA_1st0";2;14;712,565000001574;"A";1;0;NA;"A";"red";"black";"parity";1;0;1;1;1;0
"906";"5c02a0089649f9000153798b";"BRAC1_vertAA_1st0";2;15;761,070000000531;"L";1;0;NA;"L";"red";"black";"parity";6;0;0;1;0;0
"910";"5c02a0089649f9000153798b";"BRAC1_vertAA_1st0";2;16;1101,11499999766;"L";1;0;NA;"L";"red";"black";"magnit";4;0;1;0;0;0
"914";"5c02a0089649f9000153798b";"BRAC1_vertAA_1st0";2;17;1574,93999999866;"A";1;1;NA;"L";"blue";"black";"magnit";2;0;0;0;1;0
"918";"5c02a0089649f9000153798b";"BRAC1_vertAA_1st0";2;18;628,660000002244;"A";1;0;NA;"A";"blue";"black";"magnit";8;0;0;1;0;1
"922";"5c02a0089649f9000153798b";"BRAC1_vertAA_1st0";2;19;541,164999995148;"A";1;0;NA;"A";"blue";"black";"magnit";6;0;0;0;0;0
"926";"5c02a0089649f9000153798b";"BRAC1_vertAA_1st0";2;20;845,560000001569;"A";1;0;NA;"A";"red";"black";"parity";7;0;1;0;1;0
"930";"5c02a0089649f9000153798b";"BRAC1_vertAA_1st0";2;21;929,140000000247;"L";1;0;NA;"L";"blue";"black";"parity";6;0;0;1;1;0
"934";"5c02a0089649f9000153798b";"BRAC1_vertAA_1st0";2;22;482,624999996857;"A";1;0;NA;"A";"blue";"black";"magnit";9;0;1;1;0;0
"938";"5c02a0089649f9000153798b";"BRAC1_vertAA_1st0";2;23;182,539999994449;"L";1;0;NA;"L";"blue";"black";"parity";4;0;1;1;0;0
"942";"5c02a0089649f9000153798b";"BRAC1_vertAA_1st0";2;24;704,935000001569;"A";1;0;NA;"A";"red";"black";"parity";9;0;0;1;1;0
"946";"5c02a0089649f9000153798b";"BRAC1_vertAA_1st0";2;25;385,775000002468;"A";1;0;NA;"A";"red";"black";"magnit";8;0;1;0;0;0
"950";"5c02a0089649f9000153798b";"BRAC1_vertAA_1st0";2;26;321,24499999918;"A";1;1;NA;"L";"red";"black";"magnit";2;0;0;1;0;0
"954";"5c02a0089649f9000153798b";"BRAC1_vertAA_1st0";2;27;601,015000000247;"L";1;0;NA;"L";"red";"black";"magnit";4;0;0;0;0;1
"958";"5c02a0089649f9000153798b";"BRAC1_vertAA_1st0";2;28;534,015000004671;"L";1;0;NA;"L";"blue";"black";"magnit";3;0;0;0;1;0
"962";"5c02a0089649f9000153798b";"BRAC1_vertAA_1st0";2;29;384,549999995157;"L";1;0;NA;"L";"red";"black";"parity";8;0;1;0;1;0
"966";"5c02a0089649f9000153798b";"BRAC1_vertAA_1st0";2;30;543,440000001341;"L";1;0;NA;"L";"red";"black";"parity";2;0;0;0;0;0
"970";"5c02a0089649f9000153798b";"BRAC1_vertAA_1st0";2;31;594,010000000708;"L";1;0;NA;"L";"red";"black";"parity";8;0;0;0;0;0
"974";"5c02a0089649f9000153798b";"BRAC1_vertAA_1st0";2;32;102,829999996116;"A";1;0;NA;"A";"red";"black";"magnit";9;0;1;1;0;0
"978";"5c02a0089649f9000153798b";"BRAC1_vertAA_1st0";2;33;674,009999995236;"L";1;0;NA;"L";"red";"black";"parity";4;0;1;1;0;0
"982";"5c02a0089649f9000153798b";"BRAC1_vertAA_1st0";2;34;440,455000003567;"L";1;1;NA;"A";"red";"black";"parity";3;0;0;1;0;0
"986";"5c02a0089649f9000153798b";"BRAC1_vertAA_1st0";2;35;1511,74000000185;"L";1;0;NA;"L";"red";"black";"parity";6;0;0;1;0;1
"990";"5c02a0089649f9000153798b";"BRAC1_vertAA_1st0";2;36;600,660000003641;"A";1;0;NA;"A";"blue";"black";"parity";1;0;0;1;1;0
"994";"5c02a0089649f9000153798b";"BRAC1_vertAA_1st0";2;37;210,00500000082;"A";1;0;NA;"A";"red";"black";"magnit";6;0;1;0;1;0
"998";"5c02a0089649f9000153798b";"BRAC1_vertAA_1st0";2;38;246,114999994519;"L";1;0;NA;"L";"red";"black";"parity";2;0;1;1;0;0
"1002";"5c02a0089649f9000153798b";"BRAC1_vertAA_1st0";2;39;35,6550000068964;"L";1;1;NA;"A";"blue";"black";"parity";9;0;0;1;1;0
"1006";"5c02a0089649f9000153798b";"BRAC1_vertAA_1st0";2;40;42,780000003404;"A";1;1;NA;"L";"blue";"black";"magnit";4;0;1;1;0;1
"1010";"5c02a0089649f9000153798b";"BRAC1_vertAA_1st0";2;41;430,885000001639;"A";1;0;NA;"A";"blue";"black";"magnit";8;0;0;1;0;1
"1014";"5c02a0089649f9000153798b";"BRAC1_vertAA_1st0";2;42;443,390000000363;"A";1;0;NA;"A";"red";"black";"parity";9;0;1;0;1;0
"1018";"5c02a0089649f9000153798b";"BRAC1_vertAA_1st0";2;43;201,000000000931;"A";1;0;NA;"A";"blue";"black";"parity";7;0;0;0;1;0
"1022";"5c02a0089649f9000153798b";"BRAC1_vertAA_1st0";2;44;93,6850000071572;"A";1;1;NA;"L";"blue";"black";"magnit";2;0;1;1;0;0
"1026";"5c02a0089649f9000153798b";"BRAC1_vertAA_1st0";2;45;537,079999994487;"L";1;0;NA;"L";"red";"black";"magnit";3;0;0;0;1;1
"1030";"5c02a0089649f9000153798b";"BRAC1_vertAA_1st0";2;46;795,599999997648;"L";1;0;NA;"L";"blue";"black";"parity";8;0;1;0;1;0
"1034";"5c02a0089649f9000153798b";"BRAC1_vertAA_1st0";2;47;448,720000000205;"L";1;0;NA;"L";"blue";"black";"magnit";3;0;1;0;0;0
"1038";"5c02a0089649f9000153798b";"BRAC1_vertAA_1st0";2;48;600,354999995092;"L";1;1;NA;"A";"red";"black";"parity";1;0;1;1;1;0
"1042";"5c02a0089649f9000153798b";"BRAC1_vertAA_1st0";2;49;381,280000001425;"A";1;0;NA;"A";"red";"black";"magnit";8;0;1;0;0;1
"1046";"5c02a0089649f9000153798b";"BRAC1_vertAA_1st0";2;50;471,094999993569;"A";1;0;NA;"A";"red";"black";"magnit";7;0;0;0;0;0
"1050";"5c02a0089649f9000153798b";"BRAC1_vertAA_1st0";2;51;498,915000003763;"A";1;0;NA;"A";"blue";"black";"magnit";9;0;0;0;1;0
"1054";"5c02a0089649f9000153798b";"BRAC1_vertAA_1st0";2;52;236,080000002403;"L";1;0;NA;"L";"red";"black";"magnit";1;0;0;1;1;0
"1058";"5c02a0089649f9000153798b";"BRAC1_vertAA_1st0";2;53;54,0699999984354;"L";1;1;NA;"A";"red";"black";"magnit";7;0;0;1;0;0
"1062";"5c02a0089649f9000153798b";"BRAC1_vertAA_1st0";2;54;64,8599999984726;"A";1;1;NA;"L";"blue";"black";"magnit";1;0;0;1;1;1
"1066";"5c02a0089649f9000153798b";"BRAC1_vertAA_1st0";2;55;630,919999995967;"A";1;0;NA;"A";"red";"black";"parity";9;0;1;1;1;1
"1070";"5c02a0089649f9000153798b";"BRAC1_vertAA_1st0";2;56;438,374999997905;"L";1;0;NA;"L";"blue";"black";"magnit";3;0;1;1;1;0
"1074";"5c02a0089649f9000153798b";"BRAC1_vertAA_1st0";2;57;581,914999995148;"A";1;0;NA;"A";"blue";"black";"parity";1;0;1;1;0;0
"1078";"5c02a0089649f9000153798b";"BRAC1_vertAA_1st0";2;58;475,984999997308;"A";1;0;NA;"A";"blue";"black";"magnit";8;0;1;0;0;0
"1082";"5c02a0089649f9000153798b";"BRAC1_vertAA_1st0";2;59;476,464999999735;"L";1;0;NA;"L";"red";"black";"magnit";1;0;0;1;1;0
"1086";"5c02a0089649f9000153798b";"BRAC1_vertAA_1st0";2;60;738,680000002147;"L";1;0;NA;"L";"red";"black";"magnit";4;0;0;0;0;0
"1090";"5c02a0089649f9000153798b";"BRAC1_vertAA_1st0";2;61;217,9049999977;"L";1;0;NA;"L";"blue";"black";"parity";2;0;1;0;1;0
"1094";"5c02a0089649f9000153798b";"BRAC1_vertAA_1st0";2;62;497,38499999512;"A";1;0;NA;"A";"red";"black";"parity";3;0;0;1;1;0
"1098";"5c02a0089649f9000153798b";"BRAC1_vertAA_1st0";2;63;536,030000002938;"A";1;0;NA;"A";"blue";"black";"parity";9;0;0;0;1;0
"1102";"5c02a0089649f9000153798b";"BRAC1_vertAA_1st0";2;64;124,239999997313;"A";1;0;NA;"A";"red";"black";"magnit";7;0;1;0;1;0
"1106";"5c02a0089649f9000153798b";"BRAC1_vertAA_1st0";2;65;333,494999998948;"A";1;0;NA;"A";"red";"black";"parity";1;0;1;0;0;0
"1110";"5c02a0089649f9000153798b";"BRAC1_vertAA_1st0";2;66;167,809999998892;"L";1;1;NA;"A";"blue";"black";"magnit";6;0;1;0;1;0
"1114";"5c02a0089649f9000153798b";"BRAC1_vertAA_1st0";2;67;352,980000003241;"L";1;0;NA;"L";"blue";"black";"magnit";2;0;0;1;0;1
"1118";"5c02a0089649f9000153798b";"BRAC1_vertAA_1st0";2;68;146,270000004675;"A";1;0;NA;"A";"red";"black";"magnit";6;0;0;1;1;0
"1122";"5c02a0089649f9000153798b";"BRAC1_vertAA_1st0";2;69;485,244999996154;"L";1;0;NA;"L";"blue";"black";"magnit";1;0;0;1;1;0
"1126";"5c02a0089649f9000153798b";"BRAC1_vertAA_1st0";2;70;2501,09999999998;NA;NA;1;1;"L";"blue";"black";"parity";6;0;1;0;0;0
"1130";"5c02a0089649f9000153798b";"BRAC1_vertAA_1st0";2;71;162,279999996885;"L";1;0;NA;"L";"red";"black";"parity";4;0;0;0;1;1
"1134";"5c02a0089649f9000153798b";"BRAC1_vertAA_1st0";2;72;426,254999998491;"L";1;0;NA;"L";"red";"black";"magnit";2;0;1;0;0;0
"1138";"5c02a0089649f9000153798b";"BRAC1_vertAA_1st0";2;73;90,884999997681;"L";1;0;NA;"L";"blue";"black";"parity";8;0;1;0;1;0
"1142";"5c02a0089649f9000153798b";"BRAC1_vertAA_1st0";2;74;427,445000001229;"L";1;0;NA;"L";"blue";"black";"magnit";1;0;1;0;0;0
"1146";"5c02a0089649f9000153798b";"BRAC1_vertAA_1st0";2;75;107,765000000712;"L";1;0;NA;"L";"blue";"black";"parity";2;0;1;0;0;0
"1150";"5c02a0089649f9000153798b";"BRAC1_vertAA_1st0";2;76;435,765000001993;"A";1;0;NA;"A";"red";"black";"magnit";9;0;1;1;1;0
"1154";"5c02a0089649f9000153798b";"BRAC1_vertAA_1st0";2;77;451,024999994901;"L";1;0;NA;"L";"blue";"black";"parity";6;0;1;1;1;0
"1158";"5c02a0089649f9000153798b";"BRAC1_vertAA_1st0";2;78;416,230000002543;"L";1;0;NA;"L";"red";"black";"magnit";1;0;1;0;1;0
"1162";"5c02a0089649f9000153798b";"BRAC1_vertAA_1st0";2;79;308,88500000583;"A";1;1;NA;"L";"blue";"black";"parity";4;0;1;0;1;0
"1166";"5c02a0089649f9000153798b";"BRAC1_vertAA_1st0";2;80;801,489999997895;"A";1;0;NA;"A";"red";"black";"parity";7;0;0;1;1;1
"1170";"5c02a0089649f9000153798b";"BRAC1_vertAA_1st0";2;81;2508,01000000001;NA;NA;1;1;"L";"red";"black";"magnit";3;0;1;1;0;0
"1174";"5c02a0089649f9000153798b";"BRAC1_vertAA_1st0";2;82;413,604999994277;"L";1;1;NA;"A";"blue";"black";"parity";7;0;1;1;1;1
"1178";"5c02a0089649f9000153798b";"BRAC1_vertAA_1st0";2;83;1100,57999999844;"A";1;0;NA;"A";"red";"black";"parity";3;0;0;0;1;1
"1182";"5c02a0089649f9000153798b";"BRAC1_vertAA_1st0";2;84;430,375000003609;"A";1;0;NA;"A";"blue";"black";"magnit";9;0;1;0;1;0
"1186";"5c02a0089649f9000153798b";"BRAC1_vertAA_1st0";2;85;267,469999998808;"L";1;1;NA;"A";"red";"black";"parity";7;0;1;0;1;0
"1190";"5c02a0089649f9000153798b";"BRAC1_vertAA_1st0";2;86;433,724999995437;"L";1;0;NA;"L";"red";"black";"magnit";2;0;1;1;0;1
"1194";"5c02a0089649f9000153798b";"BRAC1_vertAA_1st0";2;87;410,390000004554;"A";1;0;NA;"A";"red";"black";"magnit";6;0;0;1;0;0
"1198";"5c02a0089649f9000153798b";"BRAC1_vertAA_1st0";2;88;132,74999999709;"L";1;1;NA;"A";"blue";"black";"parity";3;0;1;0;1;0
"1202";"5c02a0089649f9000153798b";"BRAC1_vertAA_1st0";2;89;402,464999999269;"A";1;1;NA;"L";"red";"black";"parity";8;0;0;1;1;1
"1206";"5c02a0089649f9000153798b";"BRAC1_vertAA_1st0";2;90;625,090000001248;"L";1;1;NA;"A";"blue";"black";"parity";3;0;0;1;1;1
"1210";"5c02a0089649f9000153798b";"BRAC1_vertAA_1st0";2;91;447,684999999241;"A";1;0;NA;"A";"blue";"black";"magnit";7;0;1;0;0;1
"1214";"5c02a0089649f9000153798b";"BRAC1_vertAA_1st0";2;92;682,499999995343;"L";1;0;NA;"L";"red";"black";"parity";2;0;1;1;1;0
"1218";"5c02a0089649f9000153798b";"BRAC1_vertAA_1st0";2;93;413,135000002454;"A";1;1;NA;"L";"blue";"black";"parity";4;0;0;0;1;0
"1222";"5c02a0089649f9000153798b";"BRAC1_vertAA_1st0";2;94;145,495000004303;"L";1;1;NA;"A";"blue";"black";"magnit";7;0;1;1;0;1
"1226";"5c02a0089649f9000153798b";"BRAC1_vertAA_1st0";2;95;493,850000006263;"A";1;0;NA;"A";"blue";"black";"parity";9;0;1;0;0;1
"1231";"5c02a0089649f9000153798b";"BRAC1_vertAA_1st0";3;0;1603,40500000166;"A";1;1;NA;"L";"red";"black";"parity";2;300;99;99;99;99
"1235";"5c02a0089649f9000153798b";"BRAC1_vertAA_1st0";3;1;616,869999998016;"A";1;0;NA;"A";"blue";"black";"magnit";7;300;1;1;1;1
"1239";"5c02a0089649f9000153798b";"BRAC1_vertAA_1st0";3;2;1462,01499999734;"A";1;0;NA;"A";"blue";"black";"parity";3;300;1;0;0;0
"1243";"5c02a0089649f9000153798b";"BRAC1_vertAA_1st0";3;3;601,624999995693;"A";1;1;NA;"L";"red";"black";"parity";8;300;0;1;1;0
"1247";"5c02a0089649f9000153798b";"BRAC1_vertAA_1st0";3;4;1502,24000000162;"L";1;0;NA;"L";"blue";"black";"parity";6;300;0;0;1;1
"1251";"5c02a0089649f9000153798b";"BRAC1_vertAA_1st0";3;5;291,25500000373;"L";1;0;NA;"L";"blue";"black";"parity";8;300;0;0;0;0
"1255";"5c02a0089649f9000153798b";"BRAC1_vertAA_1st0";3;6;332,060000000522;"A";1;1;NA;"L";"blue";"black";"magnit";4;300;1;0;0;0
"1259";"5c02a0089649f9000153798b";"BRAC1_vertAA_1st0";3;7;598,949999999721;"L";1;0;NA;"L";"red";"black";"parity";2;300;1;0;1;1
"1263";"5c02a0089649f9000153798b";"BRAC1_vertAA_1st0";3;8;455,389999995474;"L";1;0;NA;"L";"blue";"black";"magnit";1;300;1;0;1;0
"1267";"5c02a0089649f9000153798b";"BRAC1_vertAA_1st0";3;9;505,940000002738;"A";1;0;NA;"A";"red";"black";"magnit";8;300;0;1;1;0
"1271";"5c02a0089649f9000153798b";"BRAC1_vertAA_1st0";3;10;463,060000001919;"A";1;0;NA;"A";"blue";"black";"parity";7;300;1;0;1;0
"1275";"5c02a0089649f9000153798b";"BRAC1_vertAA_1st0";3;11;432,809999998426;"A";1;0;NA;"A";"blue";"black";"magnit";8;300;1;0;0;0
"1279";"5c02a0089649f9000153798b";"BRAC1_vertAA_1st0";3;12;592,989999997313;"L";1;0;NA;"L";"red";"black";"magnit";1;300;0;1;1;0
"1283";"5c02a0089649f9000153798b";"BRAC1_vertAA_1st0";3;13;430,285000002128;"A";1;0;NA;"A";"blue";"black";"magnit";6;300;0;1;1;0
"1287";"5c02a0089649f9000153798b";"BRAC1_vertAA_1st0";3;14;588,889999999083;"A";1;0;NA;"A";"red";"black";"parity";9;300;1;0;1;0
"1291";"5c02a0089649f9000153798b";"BRAC1_vertAA_1st0";3;15;475,320000005071;"L";1;0;NA;"L";"red";"black";"parity";4;300;0;1;0;0
"1295";"5c02a0089649f9000153798b";"BRAC1_vertAA_1st0";3;16;1064,41500000074;"A";1;0;NA;"A";"red";"black";"parity";1;300;0;1;0;0
"1299";"5c02a0089649f9000153798b";"BRAC1_vertAA_1st0";3;17;1700,16000000038;"L";1;0;NA;"L";"red";"black";"magnit";2;300;1;1;0;0
"1303";"5c02a0089649f9000153798b";"BRAC1_vertAA_1st0";3;18;150,070000003325;"A";1;1;NA;"L";"blue";"black";"magnit";3;300;0;0;1;0
"1307";"5c02a0089649f9000153798b";"BRAC1_vertAA_1st0";3;19;296,089999996126;"L";1;0;NA;"L";"red";"black";"parity";6;300;1;0;1;1
"1311";"5c02a0089649f9000153798b";"BRAC1_vertAA_1st0";3;20;445,009999995818;"A";1;0;NA;"A";"blue";"black";"magnit";7;300;1;1;1;0
"1315";"5c02a0089649f9000153798b";"BRAC1_vertAA_1st0";3;21;2151,12500000396;"A";1;1;NA;"L";"red";"black";"parity";4;300;1;1;1;0
"1319";"5c02a0089649f9000153798b";"BRAC1_vertAA_1st0";3;22;520,674999999697;"L";1;0;NA;"L";"red";"black";"magnit";2;300;1;0;0;1
"1323";"5c02a0089649f9000153798b";"BRAC1_vertAA_1st0";3;23;590,165000001434;"L";1;0;NA;"L";"blue";"black";"parity";6;300;1;0;1;0
"1327";"5c02a0089649f9000153798b";"BRAC1_vertAA_1st0";3;24;477,935000002617;"A";1;0;NA;"A";"red";"black";"magnit";9;300;1;1;1;0
"1331";"5c02a0089649f9000153798b";"BRAC1_vertAA_1st0";3;25;697,265000002575;"A";1;0;NA;"A";"blue";"black";"parity";7;300;1;0;1;0
"1335";"5c02a0089649f9000153798b";"BRAC1_vertAA_1st0";3;26;561,860000001616;"A";1;0;NA;"A";"red";"black";"parity";9;300;0;0;1;0
"1339";"5c02a0089649f9000153798b";"BRAC1_vertAA_1st0";3;27;468,280000000959;"A";1;0;NA;"A";"blue";"black";"magnit";8;300;1;0;1;0
"1343";"5c02a0089649f9000153798b";"BRAC1_vertAA_1st0";3;28;450,904999997932;"L";1;0;NA;"L";"red";"black";"magnit";1;300;0;1;1;0
"1347";"5c02a0089649f9000153798b";"BRAC1_vertAA_1st0";3;29;377,580000000307;"L";1;0;NA;"L";"blue";"black";"parity";2;300;1;0;1;0
"1351";"5c02a0089649f9000153798b";"BRAC1_vertAA_1st0";3;30;461,769999994431;"L";1;1;NA;"A";"blue";"black";"parity";9;300;0;1;0;0
"1355";"5c02a0089649f9000153798b";"BRAC1_vertAA_1st0";3;31;529,959999999846;"A";1;0;NA;"A";"red";"black";"parity";7;300;0;0;1;1
"1359";"5c02a0089649f9000153798b";"BRAC1_vertAA_1st0";3;32;292,765000005602;"A";1;0;NA;"A";"red";"black";"magnit";8;300;1;0;0;0
"1363";"5c02a0089649f9000153798b";"BRAC1_vertAA_1st0";3;33;239,055000005406;"A";1;1;NA;"L";"blue";"black";"magnit";2;300;0;1;1;0
"1367";"5c02a0089649f9000153798b";"BRAC1_vertAA_1st0";3;34;438,029999997583;"A";1;0;NA;"A";"blue";"black";"magnit";6;300;0;1;0;1
"1371";"5c02a0089649f9000153798b";"BRAC1_vertAA_1st0";3;35;416,935000000987;"L";1;0;NA;"L";"red";"black";"magnit";2;300;0;1;1;0
"1375";"5c02a0089649f9000153798b";"BRAC1_vertAA_1st0";3;36;425,049999997951;"L";1;0;NA;"L";"blue";"black";"parity";8;300;1;0;1;0
"1379";"5c02a0089649f9000153798b";"BRAC1_vertAA_1st0";3;37;387,595000000205;"A";1;0;NA;"A";"red";"black";"magnit";7;300;1;1;1;0
"1383";"5c02a0089649f9000153798b";"BRAC1_vertAA_1st0";3;38;21,2800000007264;"A";1;0;NA;"A";"blue";"black";"parity";3;300;1;0;1;0
"1387";"5c02a0089649f9000153798b";"BRAC1_vertAA_1st0";3;39;434,139999997569;"A";1;0;NA;"A";"red";"black";"magnit";7;300;1;0;1;0
"1391";"5c02a0089649f9000153798b";"BRAC1_vertAA_1st0";3;40;1028,1099999994;"A";1;0;NA;"A";"red";"black";"parity";9;300;1;0;0;0
"1395";"5c02a0089649f9000153798b";"BRAC1_vertAA_1st0";3;41;723,339999996824;"L";1;1;NA;"A";"red";"black";"parity";7;300;0;0;0;0
"1399";"5c02a0089649f9000153798b";"BRAC1_vertAA_1st0";3;42;276,445000003208;"A";1;1;NA;"L";"red";"black";"parity";8;300;0;1;0;1
"1403";"5c02a0089649f9000153798b";"BRAC1_vertAA_1st0";3;43;600,575000004028;"L";1;1;NA;"A";"blue";"black";"parity";9;300;0;1;1;1
"1407";"5c02a0089649f9000153798b";"BRAC1_vertAA_1st0";3;44;343,809999998426;"L";1;1;NA;"A";"blue";"black";"magnit";7;300;1;0;0;1
"1411";"5c02a0089649f9000153798b";"BRAC1_vertAA_1st0";3;45;380,685000003781;"A";1;0;NA;"A";"red";"black";"magnit";8;300;0;0;1;1
"1415";"5c02a0089649f9000153798b";"BRAC1_vertAA_1st0";3;46;874,004999997793;"A";1;0;NA;"A";"blue";"black";"parity";7;300;1;0;1;0
"1419";"5c02a0089649f9000153798b";"BRAC1_vertAA_1st0";3;47;648,269999997923;"L";1;0;NA;"L";"blue";"black";"parity";8;300;0;1;0;0
"1423";"5c02a0089649f9000153798b";"BRAC1_vertAA_1st0";3;48;679,714999998454;"L";1;0;NA;"L";"red";"black";"parity";6;300;0;0;1;0
"1427";"5c02a0089649f9000153798b";"BRAC1_vertAA_1st0";3;49;592,04000000318;"L";1;0;NA;"L";"red";"black";"parity";8;300;0;0;0;0
"1431";"5c02a0089649f9000153798b";"BRAC1_vertAA_1st0";3;50;505,02000000421;"A";1;0;NA;"A";"blue";"black";"parity";3;300;0;1;1;0
"1435";"5c02a0089649f9000153798b";"BRAC1_vertAA_1st0";3;51;434,35000000312;"A";1;0;NA;"A";"red";"black";"magnit";6;300;1;0;1;0
"1439";"5c02a0089649f9000153798b";"BRAC1_vertAA_1st0";3;52;63,0949999976438;"A";1;0;NA;"A";"red";"black";"magnit";7;300;0;0;0;0
"1443";"5c02a0089649f9000153798b";"BRAC1_vertAA_1st0";3;53;173,644999995362;"A";1;1;NA;"L";"blue";"black";"parity";6;300;1;1;1;0
"1447";"5c02a0089649f9000153798b";"BRAC1_vertAA_1st0";3;54;613,250000002095;"A";1;1;NA;"L";"red";"black";"magnit";4;300;1;0;1;1
"1451";"5c02a0089649f9000153798b";"BRAC1_vertAA_1st0";3;55;732,530000001076;"A";1;0;NA;"A";"red";"black";"parity";3;300;1;1;0;1
"1455";"5c02a0089649f9000153798b";"BRAC1_vertAA_1st0";3;56;462,945000006584;"A";1;0;NA;"A";"blue";"black";"magnit";9;300;1;0;1;0
"1459";"5c02a0089649f9000153798b";"BRAC1_vertAA_1st0";3;57;425,105000002077;"L";1;0;NA;"L";"blue";"black";"magnit";3;300;0;1;0;0
"1463";"5c02a0089649f9000153798b";"BRAC1_vertAA_1st0";3;58;21,9799999977695;"L";1;1;NA;"A";"blue";"black";"parity";9;300;1;1;0;0
"1467";"5c02a0089649f9000153798b";"BRAC1_vertAA_1st0";3;59;28,5999999978812;"L";1;1;NA;"A";"red";"black";"parity";3;300;0;0;1;1
"1471";"5c02a0089649f9000153798b";"BRAC1_vertAA_1st0";3;60;141,179999998771;"L";1;0;NA;"L";"blue";"black";"magnit";1;300;1;1;1;1
"1475";"5c02a0089649f9000153798b";"BRAC1_vertAA_1st0";3;61;566,904999999679;"A";1;1;NA;"L";"red";"black";"parity";2;300;1;0;1;0
"1479";"5c02a0089649f9000153798b";"BRAC1_vertAA_1st0";3;62;431,389999998035;"L";1;0;NA;"L";"red";"black";"magnit";3;300;1;0;0;1
"1483";"5c02a0089649f9000153798b";"BRAC1_vertAA_1st0";3;63;813,515000001527;"L";1;0;NA;"L";"blue";"black";"parity";4;300;1;0;1;0
"1487";"5c02a0089649f9000153798b";"BRAC1_vertAA_1st0";3;64;573,210000002291;"L";1;0;NA;"L";"blue";"black";"magnit";1;300;1;0;0;0
"1491";"5c02a0089649f9000153798b";"BRAC1_vertAA_1st0";3;65;598,334999995073;"A";1;0;NA;"A";"red";"black";"parity";3;300;1;1;1;0
"1495";"5c02a0089649f9000153798b";"BRAC1_vertAA_1st0";3;66;358,775000000605;"A";1;1;NA;"L";"red";"black";"magnit";1;300;1;1;0;0
"1499";"5c02a0089649f9000153798b";"BRAC1_vertAA_1st0";3;67;1172,55000000284;"A";1;0;NA;"A";"blue";"black";"magnit";8;300;0;1;1;1
"1503";"5c02a0089649f9000153798b";"BRAC1_vertAA_1st0";3;68;549,37000000081;"L";1;0;NA;"L";"red";"black";"magnit";4;300;0;1;1;0
"1507";"5c02a0089649f9000153798b";"BRAC1_vertAA_1st0";3;69;422,185000003083;"A";1;0;NA;"A";"red";"black";"magnit";6;300;0;1;0;0
"1511";"5c02a0089649f9000153798b";"BRAC1_vertAA_1st0";3;70;378,405000003055;"L";1;0;NA;"L";"blue";"black";"magnit";4;300;0;1;1;0
"1515";"5c02a0089649f9000153798b";"BRAC1_vertAA_1st0";3;71;555,000000000233;"L";1;0;NA;"L";"blue";"black";"magnit";2;300;0;0;0;0
"1519";"5c02a0089649f9000153798b";"BRAC1_vertAA_1st0";3;72;428,094999995548;"A";1;0;NA;"A";"red";"black";"magnit";9;300;0;1;1;0
"1523";"5c02a0089649f9000153798b";"BRAC1_vertAA_1st0";3;73;628,080000002403;"A";1;0;NA;"A";"blue";"black";"parity";1;300;1;0;1;0
"1527";"5c02a0089649f9000153798b";"BRAC1_vertAA_1st0";3;74;821,230000001378;"A";1;1;NA;"L";"blue";"black";"parity";2;300;0;1;0;0
"1531";"5c02a0089649f9000153798b";"BRAC1_vertAA_1st0";3;75;573,885000005364;"A";1;0;NA;"A";"red";"black";"parity";1;300;0;1;1;1
"1535";"5c02a0089649f9000153798b";"BRAC1_vertAA_1st0";3;76;482,700000000419;"A";1;0;NA;"A";"red";"black";"magnit";9;300;1;0;0;0
"1539";"5c02a0089649f9000153798b";"BRAC1_vertAA_1st0";3;77;447,890000002924;"L";1;0;NA;"L";"blue";"black";"magnit";3;300;0;1;1;0
"1543";"5c02a0089649f9000153798b";"BRAC1_vertAA_1st0";3;78;507,43499999959;"A";1;0;NA;"A";"blue";"black";"magnit";9;300;0;1;0;0
"1547";"5c02a0089649f9000153798b";"BRAC1_vertAA_1st0";3;79;663,524999996414;"A";1;0;NA;"A";"red";"black";"magnit";6;300;0;0;1;0
"1551";"5c02a0089649f9000153798b";"BRAC1_vertAA_1st0";3;80;578,645000001416;"A";1;0;NA;"A";"blue";"black";"parity";1;300;1;0;1;0
"1555";"5c02a0089649f9000153798b";"BRAC1_vertAA_1st0";3;81;660,084999995772;"L";1;0;NA;"L";"blue";"black";"parity";4;300;0;1;0;0
"1559";"5c02a0089649f9000153798b";"BRAC1_vertAA_1st0";3;82;614,840000001946;"A";1;0;NA;"A";"red";"black";"parity";7;300;0;1;1;0
"1563";"5c02a0089649f9000153798b";"BRAC1_vertAA_1st0";3;83;547,23499999824;"L";1;0;NA;"L";"red";"black";"parity";4;300;0;1;0;0
"1567";"5c02a0089649f9000153798b";"BRAC1_vertAA_1st0";3;84;470,515000000829;"L";1;0;NA;"L";"red";"black";"magnit";3;300;1;0;0;0
"1571";"5c02a0089649f9000153798b";"BRAC1_vertAA_1st0";3;85;521,054999997374;"A";1;0;NA;"A";"blue";"black";"magnit";6;300;0;1;1;0
"1575";"5c02a0089649f9000153798b";"BRAC1_vertAA_1st0";3;86;697,680000004824;"L";1;0;NA;"L";"blue";"black";"parity";4;300;1;1;0;0
"1579";"5c02a0089649f9000153798b";"BRAC1_vertAA_1st0";3;87;564,700000002515;"A";1;0;NA;"A";"blue";"black";"parity";1;300;0;1;0;0
"1583";"5c02a0089649f9000153798b";"BRAC1_vertAA_1st0";3;88;756,730000001146;"L";1;0;NA;"L";"blue";"black";"magnit";4;300;1;1;0;0
"1587";"5c02a0089649f9000153798b";"BRAC1_vertAA_1st0";3;89;972,995000003604;"A";1;0;NA;"A";"red";"black";"parity";1;300;1;1;1;0
"1591";"5c02a0089649f9000153798b";"BRAC1_vertAA_1st0";3;90;591,520000001881;"L";1;0;NA;"L";"red";"black";"magnit";3;300;1;1;0;0
"1595";"5c02a0089649f9000153798b";"BRAC1_vertAA_1st0";3;91;358,754999993835;"A";1;0;NA;"A";"blue";"black";"magnit";9;300;0;1;1;0
"1599";"5c02a0089649f9000153798b";"BRAC1_vertAA_1st0";3;92;430,060000006109;"L";1;0;NA;"L";"blue";"black";"magnit";2;300;0;1;0;0
"1603";"5c02a0089649f9000153798b";"BRAC1_vertAA_1st0";3;93;413,854999998817;"L";1;0;NA;"L";"red";"black";"magnit";4;300;0;0;1;0
"1607";"5c02a0089649f9000153798b";"BRAC1_vertAA_1st0";3;94;469,649999998976;"L";1;0;NA;"L";"red";"black";"parity";6;300;1;0;0;0
"1611";"5c02a0089649f9000153798b";"BRAC1_vertAA_1st0";3;95;451,965000000317;"L";1;0;NA;"L";"blue";"black";"parity";2;300;0;0;1;0
"5057";"5e815773285d3883ba2fbbcf";"BRAC1_horiAL_1st300";0;0;504,15500003146;"A";1;0;NA;"A";"blue";"black";"magnit";8;300;99;99;99;99
"5061";"5e815773285d3883ba2fbbcf";"BRAC1_horiAL_1st300";0;1;634,354999987409;"A";1;0;NA;"A";"blue";"black";"magnit";9;300;0;0;0;0
"5065";"5e815773285d3883ba2fbbcf";"BRAC1_horiAL_1st300";0;2;485,380000027362;"L";1;0;NA;"L";"blue";"black";"magnit";4;300;0;1;0;0
"5069";"5e815773285d3883ba2fbbcf";"BRAC1_horiAL_1st300";0;3;797,365000005811;"L";1;0;NA;"L";"red";"black";"parity";1;300;1;0;1;0
"5073";"5e815773285d3883ba2fbbcf";"BRAC1_horiAL_1st300";0;4;889,039999980014;"L";1;0;NA;"L";"blue";"black";"magnit";2;300;1;0;1;0
"5077";"5e815773285d3883ba2fbbcf";"BRAC1_horiAL_1st300";0;5;961,790000030305;"L";1;0;NA;"L";"red";"black";"magnit";4;300;0;0;1;0
"5081";"5e815773285d3883ba2fbbcf";"BRAC1_horiAL_1st300";0;6;725,774999998976;"A";1;0;NA;"A";"blue";"black";"parity";2;300;1;1;1;0
"5085";"5e815773285d3883ba2fbbcf";"BRAC1_horiAL_1st300";0;7;835,069999971893;"A";1;0;NA;"A";"red";"black";"magnit";8;300;1;0;1;0
"5089";"5e815773285d3883ba2fbbcf";"BRAC1_horiAL_1st300";0;8;590,5849999981;"L";1;0;NA;"L";"blue";"black";"magnit";2;300;0;1;1;0
"5093";"5e815773285d3883ba2fbbcf";"BRAC1_horiAL_1st300";0;9;869,999999995343;"A";1;0;NA;"A";"blue";"black";"magnit";6;300;0;1;0;0
"5097";"5e815773285d3883ba2fbbcf";"BRAC1_horiAL_1st300";0;10;1090,65999998711;"A";1;0;NA;"A";"red";"black";"parity";2;300;1;0;1;0
"5101";"5e815773285d3883ba2fbbcf";"BRAC1_horiAL_1st300";0;11;1594,66999996221;"L";1;0;NA;"L";"red";"black";"parity";9;300;0;1;0;0
"5105";"5e815773285d3883ba2fbbcf";"BRAC1_horiAL_1st300";0;12;1461,48499997798;"L";1;0;NA;"L";"red";"black";"magnit";4;300;1;0;0;0
"5109";"5e815773285d3883ba2fbbcf";"BRAC1_horiAL_1st300";0;13;627,564999973401;"L";1;0;NA;"L";"blue";"black";"magnit";3;300;0;0;1;0
"5113";"5e815773285d3883ba2fbbcf";"BRAC1_horiAL_1st300";0;14;682,685000007041;"A";1;0;NA;"A";"red";"black";"magnit";9;300;0;1;1;0
"5117";"5e815773285d3883ba2fbbcf";"BRAC1_horiAL_1st300";0;15;574,145000020508;"L";1;0;NA;"L";"blue";"black";"magnit";3;300;0;1;1;0
"5121";"5e815773285d3883ba2fbbcf";"BRAC1_horiAL_1st300";0;16;584,794999973383;"A";1;0;NA;"A";"red";"black";"magnit";7;300;0;1;1;0
"5125";"5e815773285d3883ba2fbbcf";"BRAC1_horiAL_1st300";0;17;550,569999963045;"A";1;0;NA;"A";"blue";"black";"parity";2;300;1;0;1;0
"5129";"5e815773285d3883ba2fbbcf";"BRAC1_horiAL_1st300";0;18;654,030000034254;"L";1;0;NA;"L";"blue";"black";"parity";1;300;0;1;0;0
"5133";"5e815773285d3883ba2fbbcf";"BRAC1_horiAL_1st300";0;19;567,144999979064;"A";1;1;NA;"L";"blue";"black";"parity";7;300;0;0;0;0
"5137";"5e815773285d3883ba2fbbcf";"BRAC1_horiAL_1st300";0;20;1068,2449999731;"L";1;1;NA;"A";"red";"black";"parity";8;300;0;1;1;1
"5141";"5e815773285d3883ba2fbbcf";"BRAC1_horiAL_1st300";0;21;1515,48500003992;"L";1;0;NA;"L";"red";"black";"magnit";3;300;1;1;0;1
"5145";"5e815773285d3883ba2fbbcf";"BRAC1_horiAL_1st300";0;22;1219,68999999808;"L";1;0;NA;"L";"red";"black";"parity";7;300;1;0;0;0
"5149";"5e815773285d3883ba2fbbcf";"BRAC1_horiAL_1st300";0;23;1270,33999998821;"L";1;0;NA;"L";"blue";"black";"parity";3;300;0;0;1;0
"5153";"5e815773285d3883ba2fbbcf";"BRAC1_horiAL_1st300";0;24;864,479999989271;"L";1;0;NA;"L";"blue";"black";"parity";7;300;0;0;0;0
"5157";"5e815773285d3883ba2fbbcf";"BRAC1_horiAL_1st300";0;25;789,999999979045;"A";1;0;NA;"A";"red";"black";"parity";6;300;0;1;1;0
"5161";"5e815773285d3883ba2fbbcf";"BRAC1_horiAL_1st300";0;26;956,345000013243;"L";1;0;NA;"L";"blue";"black";"parity";9;300;0;1;1;0
"5165";"5e815773285d3883ba2fbbcf";"BRAC1_horiAL_1st300";0;27;1206,86999999452;"L";1;0;NA;"L";"blue";"black";"parity";1;300;0;0;0;0
"5169";"5e815773285d3883ba2fbbcf";"BRAC1_horiAL_1st300";0;28;1099,94500002358;"A";1;0;NA;"A";"red";"black";"magnit";7;300;1;1;1;0
"5173";"5e815773285d3883ba2fbbcf";"BRAC1_horiAL_1st300";0;29;913,839999993797;"A";1;0;NA;"A";"blue";"black";"parity";8;300;1;0;1;0
"5177";"5e815773285d3883ba2fbbcf";"BRAC1_horiAL_1st300";0;30;557,63500003377;"A";1;0;NA;"A";"red";"black";"parity";6;300;0;0;1;0
"5181";"5e815773285d3883ba2fbbcf";"BRAC1_horiAL_1st300";0;31;572,855000034906;"A";1;0;NA;"A";"blue";"black";"magnit";7;300;1;0;1;0
"5185";"5e815773285d3883ba2fbbcf";"BRAC1_horiAL_1st300";0;32;686,760000011418;"A";1;0;NA;"A";"blue";"black";"parity";6;300;1;0;0;0
"5189";"5e815773285d3883ba2fbbcf";"BRAC1_horiAL_1st300";0;33;911,034999997355;"L";1;0;NA;"L";"red";"black";"magnit";2;300;1;1;1;0
"5193";"5e815773285d3883ba2fbbcf";"BRAC1_horiAL_1st300";0;34;866,295000014361;"L";1;0;NA;"L";"red";"black";"parity";7;300;1;0;0;0
"5197";"5e815773285d3883ba2fbbcf";"BRAC1_horiAL_1st300";0;35;701,590000011493;"L";1;0;NA;"L";"blue";"black";"magnit";4;300;1;0;1;0
"5201";"5e815773285d3883ba2fbbcf";"BRAC1_horiAL_1st300";0;36;481,510000012349;"A";1;0;NA;"A";"red";"black";"magnit";8;300;0;1;1;0
"5205";"5e815773285d3883ba2fbbcf";"BRAC1_horiAL_1st300";0;37;1056,13000004087;"L";1;0;NA;"L";"red";"black";"parity";9;300;1;1;0;0
"5209";"5e815773285d3883ba2fbbcf";"BRAC1_horiAL_1st300";0;38;1372,54000001121;"A";1;0;NA;"A";"blue";"black";"parity";8;300;0;1;1;0
"5213";"5e815773285d3883ba2fbbcf";"BRAC1_horiAL_1st300";0;39;1501,88000005437;"L";1;0;NA;"L";"red";"black";"magnit";1;300;1;1;1;0
"5217";"5e815773285d3883ba2fbbcf";"BRAC1_horiAL_1st300";0;40;888,470000005327;"L";1;0;NA;"L";"blue";"black";"parity";9;300;1;0;1;0
"5221";"5e815773285d3883ba2fbbcf";"BRAC1_horiAL_1st300";0;41;1109,36499998206;"A";1;0;NA;"A";"blue";"black";"magnit";8;300;1;1;0;0
"5225";"5e815773285d3883ba2fbbcf";"BRAC1_horiAL_1st300";0;42;1047,57999995491;"L";1;0;NA;"L";"red";"black";"parity";7;300;1;1;1;0
"5229";"5e815773285d3883ba2fbbcf";"BRAC1_horiAL_1st300";0;43;952,105000033043;"A";1;0;NA;"A";"red";"black";"magnit";9;300;1;1;0;0
"5233";"5e815773285d3883ba2fbbcf";"BRAC1_horiAL_1st300";0;44;1594,93999998085;"L";1;0;NA;"L";"blue";"black";"parity";3;300;1;1;1;0
"5237";"5e815773285d3883ba2fbbcf";"BRAC1_horiAL_1st300";0;45;1234,1899999883;"L";1;0;NA;"L";"blue";"black";"magnit";1;300;1;0;0;0
"5241";"5e815773285d3883ba2fbbcf";"BRAC1_horiAL_1st300";0;46;881,585000024643;"A";1;0;NA;"A";"red";"black";"parity";6;300;1;1;1;0
"5245";"5e815773285d3883ba2fbbcf";"BRAC1_horiAL_1st300";0;47;710,980000032578;"L";1;0;NA;"L";"blue";"black";"parity";9;300;0;1;1;0
"5249";"5e815773285d3883ba2fbbcf";"BRAC1_horiAL_1st300";0;48;781,669999996666;"A";1;0;NA;"A";"red";"black";"magnit";6;300;1;1;1;0
"5253";"5e815773285d3883ba2fbbcf";"BRAC1_horiAL_1st300";0;49;947,310000017751;"L";1;0;NA;"L";"red";"black";"magnit";4;300;0;1;0;0
"5257";"5e815773285d3883ba2fbbcf";"BRAC1_horiAL_1st300";0;50;1213,41999998549;"A";1;0;NA;"A";"blue";"black";"magnit";7;300;0;1;1;0
"5261";"5e815773285d3883ba2fbbcf";"BRAC1_horiAL_1st300";0;51;922,365000005811;"L";1;0;NA;"L";"blue";"black";"magnit";4;300;0;1;0;0
"5265";"5e815773285d3883ba2fbbcf";"BRAC1_horiAL_1st300";0;52;509,66999999946;"L";1;0;NA;"L";"red";"black";"magnit";3;300;0;0;1;0
"5269";"5e815773285d3883ba2fbbcf";"BRAC1_horiAL_1st300";0;53;691,509999975096;"A";1;0;NA;"A";"blue";"black";"parity";4;300;1;1;1;0
"5273";"5e815773285d3883ba2fbbcf";"BRAC1_horiAL_1st300";0;54;1019,15999996709;"L";1;0;NA;"L";"red";"black";"parity";1;300;0;1;1;0
"5277";"5e815773285d3883ba2fbbcf";"BRAC1_horiAL_1st300";0;55;569,194999989122;"L";1;0;NA;"L";"blue";"black";"parity";3;300;0;0;1;0
"5281";"5e815773285d3883ba2fbbcf";"BRAC1_horiAL_1st300";0;56;635,680000006687;"A";1;0;NA;"A";"red";"black";"parity";4;300;0;1;1;0
"5285";"5e815773285d3883ba2fbbcf";"BRAC1_horiAL_1st300";0;57;1079,21500003431;"A";1;0;NA;"A";"blue";"black";"magnit";8;300;1;0;1;0
"5289";"5e815773285d3883ba2fbbcf";"BRAC1_horiAL_1st300";0;58;1986,54000001261;"L";1;0;NA;"L";"red";"black";"parity";3;300;1;1;1;0
"5293";"5e815773285d3883ba2fbbcf";"BRAC1_horiAL_1st300";0;59;1251,75000005402;"L";1;0;NA;"L";"red";"black";"parity";9;300;0;0;0;0
"5297";"5e815773285d3883ba2fbbcf";"BRAC1_horiAL_1st300";0;60;728,265000041574;"A";1;0;NA;"A";"red";"black";"magnit";7;300;1;1;0;0
"5301";"5e815773285d3883ba2fbbcf";"BRAC1_horiAL_1st300";0;61;440,234999987297;"L";1;0;NA;"L";"red";"black";"magnit";1;300;0;1;0;0
"5305";"5e815773285d3883ba2fbbcf";"BRAC1_horiAL_1st300";0;62;642,809999990277;"A";1;0;NA;"A";"red";"black";"parity";8;300;1;1;0;0
"5309";"5e815773285d3883ba2fbbcf";"BRAC1_horiAL_1st300";0;63;561,204999976326;"A";1;0;NA;"A";"red";"black";"parity";4;300;0;0;0;0
"5313";"5e815773285d3883ba2fbbcf";"BRAC1_horiAL_1st300";0;64;667,804999975488;"A";1;0;NA;"A";"blue";"black";"magnit";7;300;1;0;1;0
"5317";"5e815773285d3883ba2fbbcf";"BRAC1_horiAL_1st300";0;65;534,945000021253;"A";1;0;NA;"A";"blue";"black";"magnit";9;300;0;0;0;0
"5321";"5e815773285d3883ba2fbbcf";"BRAC1_horiAL_1st300";0;66;559,544999967329;"L";1;0;NA;"L";"blue";"black";"magnit";3;300;0;1;0;0
"5325";"5e815773285d3883ba2fbbcf";"BRAC1_horiAL_1st300";0;67;556,429999996908;"A";1;0;NA;"A";"blue";"black";"parity";2;300;1;1;0;0
"5329";"5e815773285d3883ba2fbbcf";"BRAC1_horiAL_1st300";0;68;710,265000001527;"L";1;0;NA;"L";"blue";"black";"parity";1;300;0;1;0;0
"5333";"5e815773285d3883ba2fbbcf";"BRAC1_horiAL_1st300";0;69;544,210000021849;"A";1;0;NA;"A";"red";"black";"parity";4;300;0;1;1;0
"5337";"5e815773285d3883ba2fbbcf";"BRAC1_horiAL_1st300";0;70;690,260000003036;"A";1;0;NA;"A";"blue";"black";"magnit";9;300;1;0;1;0
"5341";"5e815773285d3883ba2fbbcf";"BRAC1_horiAL_1st300";0;71;1069,51499998104;"A";1;0;NA;"A";"blue";"black";"parity";4;300;1;0;0;0
"5345";"5e815773285d3883ba2fbbcf";"BRAC1_horiAL_1st300";0;72;518,739999970421;"L";1;0;NA;"L";"red";"black";"magnit";1;300;1;1;1;0
"5349";"5e815773285d3883ba2fbbcf";"BRAC1_horiAL_1st300";0;73;498,410000000149;"A";1;0;NA;"A";"blue";"black";"magnit";6;300;0;1;1;0
"5353";"5e815773285d3883ba2fbbcf";"BRAC1_horiAL_1st300";0;74;1656,12500003772;"A";1;0;NA;"A";"red";"black";"magnit";9;300;0;0;1;0
"5357";"5e815773285d3883ba2fbbcf";"BRAC1_horiAL_1st300";0;75;988,245000015013;"A";1;0;NA;"A";"red";"black";"magnit";6;300;0;0;0;0
"5361";"5e815773285d3883ba2fbbcf";"BRAC1_horiAL_1st300";0;76;1152,78499998385;"A";1;0;NA;"A";"red";"black";"parity";2;300;1;0;0;0
"5365";"5e815773285d3883ba2fbbcf";"BRAC1_horiAL_1st300";0;77;1088,50000001257;"L";1;0;NA;"L";"blue";"black";"magnit";1;300;1;1;1;0
"5369";"5e815773285d3883ba2fbbcf";"BRAC1_horiAL_1st300";0;78;473,220000043511;"L";1;0;NA;"L";"red";"black";"parity";3;300;1;0;1;0
"5373";"5e815773285d3883ba2fbbcf";"BRAC1_horiAL_1st300";0;79;589,659999997821;"A";1;0;NA;"A";"red";"black";"magnit";6;300;1;1;0;0
"5377";"5e815773285d3883ba2fbbcf";"BRAC1_horiAL_1st300";0;80;1114,80000003939;"A";1;0;NA;"A";"blue";"black";"parity";4;300;1;0;1;0
"5381";"5e815773285d3883ba2fbbcf";"BRAC1_horiAL_1st300";0;81;620,649999997113;"A";1;0;NA;"A";"red";"black";"parity";8;300;0;0;1;0
"5385";"5e815773285d3883ba2fbbcf";"BRAC1_horiAL_1st300";0;82;971,599999989849;"A";1;0;NA;"A";"blue";"black";"parity";6;300;0;0;1;0
"5389";"5e815773285d3883ba2fbbcf";"BRAC1_horiAL_1st300";0;83;546,169999986887;"L";1;0;NA;"L";"red";"black";"magnit";2;300;1;1;1;0
"5393";"5e815773285d3883ba2fbbcf";"BRAC1_horiAL_1st300";0;84;982,170000032056;"A";1;0;NA;"A";"blue";"black";"parity";8;300;1;1;1;0
"5397";"5e815773285d3883ba2fbbcf";"BRAC1_horiAL_1st300";0;85;807,295000005979;"A";1;0;NA;"A";"blue";"black";"magnit";6;300;1;0;0;0
"5401";"5e815773285d3883ba2fbbcf";"BRAC1_horiAL_1st300";0;86;476,405000023078;"A";1;0;NA;"A";"red";"black";"magnit";8;300;0;0;1;0
"5405";"5e815773285d3883ba2fbbcf";"BRAC1_horiAL_1st300";0;87;1304,70500001684;"L";1;0;NA;"L";"blue";"black";"magnit";2;300;0;1;1;0
"5409";"5e815773285d3883ba2fbbcf";"BRAC1_horiAL_1st300";0;88;416,824999963865;"L";1;0;NA;"L";"red";"black";"magnit";3;300;0;0;1;0
"5413";"5e815773285d3883ba2fbbcf";"BRAC1_horiAL_1st300";0;89;1875,3850000212;"A";1;0;NA;"A";"blue";"black";"parity";6;300;1;1;1;0
"5417";"5e815773285d3883ba2fbbcf";"BRAC1_horiAL_1st300";0;90;956,629999971483;"L";1;0;NA;"L";"blue";"black";"magnit";1;300;1;1;0;0
"5421";"5e815773285d3883ba2fbbcf";"BRAC1_horiAL_1st300";0;91;1098,10500004096;"A";1;1;NA;"L";"blue";"black";"parity";7;300;1;0;0;0
"5425";"5e815773285d3883ba2fbbcf";"BRAC1_horiAL_1st300";0;92;1475,1099999994;"L";1;0;NA;"L";"red";"black";"parity";3;300;0;0;1;1
"5429";"5e815773285d3883ba2fbbcf";"BRAC1_horiAL_1st300";0;93;674,259999999776;"A";1;0;NA;"A";"red";"black";"parity";2;300;0;1;0;0
"5433";"5e815773285d3883ba2fbbcf";"BRAC1_horiAL_1st300";0;94;856,414999987464;"L";1;0;NA;"L";"red";"black";"parity";1;300;0;1;0;0
"5437";"5e815773285d3883ba2fbbcf";"BRAC1_horiAL_1st300";0;95;827,875000017229;"L";1;0;NA;"L";"red";"black";"magnit";2;300;1;0;0;0
"5442";"5e815773285d3883ba2fbbcf";"BRAC1_horiAL_1st300";1;0;723,045000049751;"A";1;0;NA;"A";"red";"black";"parity";8;0;99;99;99;99
"5446";"5e815773285d3883ba2fbbcf";"BRAC1_horiAL_1st300";1;1;1063,51499998709;"A";1;0;NA;"A";"blue";"black";"magnit";6;0;1;0;1;0
"5450";"5e815773285d3883ba2fbbcf";"BRAC1_horiAL_1st300";1;2;768,444999994244;"A";1;0;NA;"A";"blue";"black";"parity";8;0;1;0;0;0
"5454";"5e815773285d3883ba2fbbcf";"BRAC1_horiAL_1st300";1;3;620,065000024624;"L";1;0;NA;"L";"blue";"black";"parity";9;0;0;1;0;0
"5458";"5e815773285d3883ba2fbbcf";"BRAC1_horiAL_1st300";1;4;428,565000009257;"L";1;0;NA;"L";"red";"black";"magnit";1;0;1;0;1;0
"5462";"5e815773285d3883ba2fbbcf";"BRAC1_horiAL_1st300";1;5;413,959999976214;"L";1;0;NA;"L";"blue";"black";"magnit";2;0;0;0;1;0
"5466";"5e815773285d3883ba2fbbcf";"BRAC1_horiAL_1st300";1;6;439,884999999776;"A";1;0;NA;"A";"red";"black";"magnit";6;0;0;1;1;0
"5470";"5e815773285d3883ba2fbbcf";"BRAC1_horiAL_1st300";1;7;671,404999971855;"L";1;0;NA;"L";"blue";"black";"parity";1;0;1;1;1;0
"5474";"5e815773285d3883ba2fbbcf";"BRAC1_horiAL_1st300";1;8;732,37500002142;"A";1;0;NA;"A";"red";"black";"magnit";7;0;1;1;1;0
"5478";"5e815773285d3883ba2fbbcf";"BRAC1_horiAL_1st300";1;9;958,549999981187;"L";1;0;NA;"L";"red";"black";"parity";3;0;1;1;0;0
"5482";"5e815773285d3883ba2fbbcf";"BRAC1_horiAL_1st300";1;10;736,654999956954;"L";1;0;NA;"L";"red";"black";"parity";7;0;0;0;0;0
"5486";"5e815773285d3883ba2fbbcf";"BRAC1_horiAL_1st300";1;11;1000,37500000326;"A";1;0;NA;"A";"blue";"black";"parity";4;0;0;1;1;0
"5490";"5e815773285d3883ba2fbbcf";"BRAC1_horiAL_1st300";1;12;835,569999995641;"L";1;0;NA;"L";"red";"black";"parity";3;0;0;1;1;0
"5494";"5e815773285d3883ba2fbbcf";"BRAC1_horiAL_1st300";1;13;1385,37500001257;"L";1;0;NA;"L";"red";"black";"magnit";2;0;1;0;0;0
"5498";"5e815773285d3883ba2fbbcf";"BRAC1_horiAL_1st300";1;14;1109,62000000291;"A";1;0;NA;"A";"blue";"black";"parity";6;0;1;1;1;0
"5502";"5e815773285d3883ba2fbbcf";"BRAC1_horiAL_1st300";1;15;732,65000001993;"A";1;0;NA;"A";"blue";"black";"magnit";8;0;1;0;0;0
"5506";"5e815773285d3883ba2fbbcf";"BRAC1_horiAL_1st300";1;16;1086,84000000358;"A";1;0;NA;"A";"red";"black";"magnit";9;0;0;0;1;0
"5510";"5e815773285d3883ba2fbbcf";"BRAC1_horiAL_1st300";1;17;1364,77500002366;"A";1;0;NA;"A";"red";"black";"parity";4;0;1;0;0;0
"5514";"5e815773285d3883ba2fbbcf";"BRAC1_horiAL_1st300";1;18;934,844999981578;"L";1;0;NA;"L";"red";"black";"parity";9;0;0;1;0;0
"5518";"5e815773285d3883ba2fbbcf";"BRAC1_horiAL_1st300";1;19;1311,60499999532;"L";1;0;NA;"L";"blue";"black";"parity";3;0;0;0;1;0
"5522";"5e815773285d3883ba2fbbcf";"BRAC1_horiAL_1st300";1;20;888,540000014473;"A";1;0;NA;"A";"red";"black";"parity";2;0;0;1;1;0
"5526";"5e815773285d3883ba2fbbcf";"BRAC1_horiAL_1st300";1;21;995,895000000019;"L";1;0;NA;"L";"blue";"black";"parity";3;0;0;1;1;0
"5530";"5e815773285d3883ba2fbbcf";"BRAC1_horiAL_1st300";1;22;1233,52000000887;"L";1;0;NA;"L";"blue";"black";"magnit";4;0;1;0;0;0
"5534";"5e815773285d3883ba2fbbcf";"BRAC1_horiAL_1st300";1;23;764,910000027157;"L";1;0;NA;"L";"red";"black";"parity";1;0;1;0;1;0
"5538";"5e815773285d3883ba2fbbcf";"BRAC1_horiAL_1st300";1;24;967,545000021346;"L";1;0;NA;"L";"red";"black";"parity";3;0;0;0;0;0
"5542";"5e815773285d3883ba2fbbcf";"BRAC1_horiAL_1st300";1;25;599,710000038613;"A";1;0;NA;"A";"red";"black";"magnit";7;0;1;1;0;0
"5546";"5e815773285d3883ba2fbbcf";"BRAC1_horiAL_1st300";1;26;1109,41999999341;"A";1;0;NA;"A";"red";"black";"magnit";6;0;0;0;0;0
"5550";"5e815773285d3883ba2fbbcf";"BRAC1_horiAL_1st300";1;27;1055,82499998854;"A";1;0;NA;"A";"blue";"black";"parity";8;0;1;0;1;0
"5554";"5e815773285d3883ba2fbbcf";"BRAC1_horiAL_1st300";1;28;459,909999975935;"L";1;0;NA;"L";"blue";"black";"magnit";2;0;1;1;0;0
"5558";"5e815773285d3883ba2fbbcf";"BRAC1_horiAL_1st300";1;29;448,210000002291;"A";1;0;NA;"A";"blue";"black";"parity";4;0;1;1;0;0
"5562";"5e815773285d3883ba2fbbcf";"BRAC1_horiAL_1st300";1;30;2046,87000002014;"L";1;1;NA;"A";"red";"black";"parity";2;0;0;0;1;0
"5566";"5e815773285d3883ba2fbbcf";"BRAC1_horiAL_1st300";1;31;1078,37999996264;"A";1;0;NA;"A";"red";"black";"parity";6;0;0;0;0;1
"5570";"5e815773285d3883ba2fbbcf";"BRAC1_horiAL_1st300";1;32;1258,15999996848;"A";1;0;NA;"A";"red";"black";"magnit";8;0;1;0;0;0
"5574";"5e815773285d3883ba2fbbcf";"BRAC1_horiAL_1st300";1;33;458,08000001125;"A";1;0;NA;"A";"red";"black";"magnit";9;0;0;0;0;0
"5578";"5e815773285d3883ba2fbbcf";"BRAC1_horiAL_1st300";1;34;1824,46999999229;"L";1;1;NA;"A";"blue";"black";"parity";2;0;1;0;1;0
"5582";"5e815773285d3883ba2fbbcf";"BRAC1_horiAL_1st300";1;35;706,495000049472;"A";1;0;NA;"A";"blue";"black";"parity";6;0;0;0;0;1
"5586";"5e815773285d3883ba2fbbcf";"BRAC1_horiAL_1st300";1;36;1366,91499996232;"L";1;0;NA;"L";"blue";"black";"parity";9;0;0;1;0;0
"5590";"5e815773285d3883ba2fbbcf";"BRAC1_horiAL_1st300";1;37;1088,45499996096;"L";1;0;NA;"L";"red";"black";"magnit";2;0;1;0;1;0
"5594";"5e815773285d3883ba2fbbcf";"BRAC1_horiAL_1st300";1;38;920,050000015181;"A";1;0;NA;"A";"red";"black";"magnit";6;0;0;1;0;0
"5598";"5e815773285d3883ba2fbbcf";"BRAC1_horiAL_1st300";1;39;748,910000023898;"A";1;0;NA;"A";"red";"black";"magnit";8;0;0;0;0;0
"5602";"5e815773285d3883ba2fbbcf";"BRAC1_horiAL_1st300";1;40;488,249999994878;"L";1;0;NA;"L";"red";"black";"magnit";2;0;0;1;0;0
"5606";"5e815773285d3883ba2fbbcf";"BRAC1_horiAL_1st300";1;41;657,740000053309;"A";1;0;NA;"A";"red";"black";"parity";4;0;1;1;0;0
"5610";"5e815773285d3883ba2fbbcf";"BRAC1_horiAL_1st300";1;42;462,735000008252;"L";1;0;NA;"L";"red";"black";"parity";1;0;0;1;0;0
"5614";"5e815773285d3883ba2fbbcf";"BRAC1_horiAL_1st300";1;43;864,110000024084;"A";1;0;NA;"A";"blue";"black";"parity";2;0;0;1;1;0
"5618";"5e815773285d3883ba2fbbcf";"BRAC1_horiAL_1st300";1;44;427,734999975655;"L";1;0;NA;"L";"red";"black";"parity";1;0;0;1;1;0
"5622";"5e815773285d3883ba2fbbcf";"BRAC1_horiAL_1st300";1;45;536,284999980126;"L";1;0;NA;"L";"blue";"black";"magnit";3;0;1;0;1;0
"5626";"5e815773285d3883ba2fbbcf";"BRAC1_horiAL_1st300";1;46;791,274999966845;"L";1;0;NA;"L";"blue";"black";"magnit";1;0;0;0;0;0
"5630";"5e815773285d3883ba2fbbcf";"BRAC1_horiAL_1st300";1;47;784,449999977369;"L";1;0;NA;"L";"blue";"black";"magnit";4;0;0;0;0;0
"5634";"5e815773285d3883ba2fbbcf";"BRAC1_horiAL_1st300";1;48;605,434999975841;"L";1;0;NA;"L";"red";"black";"parity";7;0;1;0;1;0
"5638";"5e815773285d3883ba2fbbcf";"BRAC1_horiAL_1st300";1;49;441,7399999802;"A";1;0;NA;"A";"red";"black";"parity";4;0;0;1;0;0
"5642";"5e815773285d3883ba2fbbcf";"BRAC1_horiAL_1st300";1;50;733,139999967534;"L";1;0;NA;"L";"blue";"black";"magnit";1;0;1;1;1;0
"5646";"5e815773285d3883ba2fbbcf";"BRAC1_horiAL_1st300";1;51;1165,16500001308;"A";1;1;NA;"L";"red";"black";"magnit";4;0;0;0;1;0
"5650";"5e815773285d3883ba2fbbcf";"BRAC1_horiAL_1st300";1;52;613,765000016429;"L";1;0;NA;"L";"blue";"black";"magnit";2;0;0;0;1;1
"5654";"5e815773285d3883ba2fbbcf";"BRAC1_horiAL_1st300";1;53;638,520000036806;"L";1;0;NA;"L";"blue";"black";"parity";9;0;1;0;0;0
"5658";"5e815773285d3883ba2fbbcf";"BRAC1_horiAL_1st300";1;54;582,150000031106;"A";1;0;NA;"A";"blue";"black";"magnit";7;0;1;1;0;0
"5662";"5e815773285d3883ba2fbbcf";"BRAC1_horiAL_1st300";1;55;750,860000029206;"A";1;0;NA;"A";"red";"black";"parity";8;0;1;0;1;0
"5666";"5e815773285d3883ba2fbbcf";"BRAC1_horiAL_1st300";1;56;776,149999990594;"L";1;0;NA;"L";"red";"black";"magnit";1;0;1;1;0;0
"5670";"5e815773285d3883ba2fbbcf";"BRAC1_horiAL_1st300";1;57;722,299999964889;"A";1;0;NA;"A";"blue";"black";"magnit";6;0;0;1;1;0
"5674";"5e815773285d3883ba2fbbcf";"BRAC1_horiAL_1st300";1;58;738,750000018626;"L";1;0;NA;"L";"blue";"black";"parity";1;0;1;1;0;0
"5678";"5e815773285d3883ba2fbbcf";"BRAC1_horiAL_1st300";1;59;706,759999971837;"L";1;0;NA;"L";"red";"black";"magnit";3;0;1;0;1;0
"5682";"5e815773285d3883ba2fbbcf";"BRAC1_horiAL_1st300";1;60;751,445000001695;"A";1;0;NA;"A";"red";"black";"parity";2;0;1;1;0;0
"5686";"5e815773285d3883ba2fbbcf";"BRAC1_horiAL_1st300";1;61;1985,00000004424;"L";1;0;NA;"L";"red";"black";"magnit";1;0;1;1;0;0
"5690";"5e815773285d3883ba2fbbcf";"BRAC1_horiAL_1st300";1;62;1982,66499995952;"A";1;0;NA;"A";"red";"black";"parity";6;0;1;1;0;0
"5694";"5e815773285d3883ba2fbbcf";"BRAC1_horiAL_1st300";1;63;1990,02500000643;"A";1;0;NA;"A";"blue";"black";"parity";4;0;0;0;1;0
"5698";"5e815773285d3883ba2fbbcf";"BRAC1_horiAL_1st300";1;64;616,85499997111;"L";1;0;NA;"L";"blue";"black";"parity";3;0;0;1;0;0
"5702";"5e815773285d3883ba2fbbcf";"BRAC1_horiAL_1st300";1;65;946,144999994431;"A";1;0;NA;"A";"blue";"black";"parity";2;0;0;1;0;0
"5706";"5e815773285d3883ba2fbbcf";"BRAC1_horiAL_1st300";1;66;508,700000005774;"L";1;0;NA;"L";"red";"black";"magnit";3;0;1;1;1;0
"5710";"5e815773285d3883ba2fbbcf";"BRAC1_horiAL_1st300";1;67;515,879999962635;"A";1;0;NA;"A";"blue";"black";"magnit";9;0;0;1;1;0
"5714";"5e815773285d3883ba2fbbcf";"BRAC1_horiAL_1st300";1;68;488,840000005439;"L";1;0;NA;"L";"blue";"black";"magnit";4;0;0;1;0;0
"5718";"5e815773285d3883ba2fbbcf";"BRAC1_horiAL_1st300";1;69;547,449999954551;"A";1;0;NA;"A";"blue";"black";"magnit";7;0;0;1;0;0
"5722";"5e815773285d3883ba2fbbcf";"BRAC1_horiAL_1st300";1;70;711,155000026338;"L";1;0;NA;"L";"red";"black";"magnit";4;0;0;1;1;0
"5726";"5e815773285d3883ba2fbbcf";"BRAC1_horiAL_1st300";1;71;1825,01999998931;"A";1;0;NA;"A";"red";"black";"parity";6;0;1;1;0;0
"5730";"5e815773285d3883ba2fbbcf";"BRAC1_horiAL_1st300";1;72;488,639999995939;"L";1;0;NA;"L";"blue";"black";"parity";7;0;0;1;1;0
"5734";"5e815773285d3883ba2fbbcf";"BRAC1_horiAL_1st300";1;73;1666,94000002462;"A";1;0;NA;"A";"red";"black";"parity";8;0;0;1;1;0
"5738";"5e815773285d3883ba2fbbcf";"BRAC1_horiAL_1st300";1;74;704,01500002481;"A";1;0;NA;"A";"red";"black";"magnit";7;0;1;0;0;0
"5742";"5e815773285d3883ba2fbbcf";"BRAC1_horiAL_1st300";1;75;473,304999992251;"A";1;0;NA;"A";"blue";"black";"magnit";9;0;0;0;1;0
"5746";"5e815773285d3883ba2fbbcf";"BRAC1_horiAL_1st300";1;76;534,51500000665;"A";1;0;NA;"A";"blue";"black";"magnit";6;0;0;0;0;0
"5750";"5e815773285d3883ba2fbbcf";"BRAC1_horiAL_1st300";1;77;345,205000019632;"L";1;0;NA;"L";"blue";"black";"magnit";3;0;0;1;0;0
"5754";"5e815773285d3883ba2fbbcf";"BRAC1_horiAL_1st300";1;78;947,005000023637;"A";1;0;NA;"A";"blue";"black";"magnit";9;0;0;1;0;0
"5758";"5e815773285d3883ba2fbbcf";"BRAC1_horiAL_1st300";1;79;1079,68000002438;"L";1;0;NA;"L";"blue";"black";"parity";7;0;1;1;0;0
"5762";"5e815773285d3883ba2fbbcf";"BRAC1_horiAL_1st300";1;80;1895,83999995375;"L";1;0;NA;"L";"blue";"black";"magnit";3;0;1;0;0;0
"5766";"5e815773285d3883ba2fbbcf";"BRAC1_horiAL_1st300";1;81;554,375000006985;"A";1;0;NA;"A";"blue";"black";"magnit";8;0;0;1;0;0
"5770";"5e815773285d3883ba2fbbcf";"BRAC1_horiAL_1st300";1;82;680,434999987483;"L";1;0;NA;"L";"red";"black";"parity";9;0;1;1;1;0
"5774";"5e815773285d3883ba2fbbcf";"BRAC1_horiAL_1st300";1;83;400,685000000522;"A";1;0;NA;"A";"blue";"black";"parity";8;0;0;1;1;0
"5778";"5e815773285d3883ba2fbbcf";"BRAC1_horiAL_1st300";1;84;383,49500001641;"L";1;0;NA;"L";"red";"black";"magnit";3;0;1;1;1;0
"5782";"5e815773285d3883ba2fbbcf";"BRAC1_horiAL_1st300";1;85;821,110000018962;"A";1;1;NA;"L";"blue";"black";"parity";1;0;1;0;1;0
"5786";"5e815773285d3883ba2fbbcf";"BRAC1_horiAL_1st300";1;86;2497,62800000003;NA;NA;1;1;"A";"red";"black";"magnit";8;0;1;1;1;1
"5790";"5e815773285d3883ba2fbbcf";"BRAC1_horiAL_1st300";1;87;1412,36999997636;"L";1;0;NA;"L";"blue";"black";"parity";7;0;1;1;1;1
"5794";"5e815773285d3883ba2fbbcf";"BRAC1_horiAL_1st300";1;88;1000,99999998929;"A";1;0;NA;"A";"red";"black";"magnit";9;0;1;1;1;0
"5798";"5e815773285d3883ba2fbbcf";"BRAC1_horiAL_1st300";1;89;620,83500000881;"A";1;1;NA;"L";"red";"black";"parity";7;0;1;1;0;0
"5802";"5e815773285d3883ba2fbbcf";"BRAC1_horiAL_1st300";1;90;1306,66999996174;"L";1;0;NA;"L";"red";"black";"magnit";4;0;1;0;0;1
"5806";"5e815773285d3883ba2fbbcf";"BRAC1_horiAL_1st300";1;91;610,270000004675;"A";1;0;NA;"A";"blue";"black";"magnit";8;0;0;1;1;0
"5810";"5e815773285d3883ba2fbbcf";"BRAC1_horiAL_1st300";1;92;694,324999989476;"L";1;0;NA;"L";"blue";"black";"magnit";1;0;0;1;0;0
"5814";"5e815773285d3883ba2fbbcf";"BRAC1_horiAL_1st300";1;93;880,279999983031;"A";1;0;NA;"A";"blue";"black";"parity";6;0;1;1;0;0
"5818";"5e815773285d3883ba2fbbcf";"BRAC1_horiAL_1st300";1;94;1166,50500003016;"A";1;1;NA;"L";"red";"black";"parity";9;0;0;1;1;0
"5822";"5e815773285d3883ba2fbbcf";"BRAC1_horiAL_1st300";1;95;1168,0649999762;"A";1;0;NA;"A";"blue";"black";"magnit";7;0;1;1;1;1
"5827";"5e815773285d3883ba2fbbcf";"BRAC1_horiAL_1st300";2;0;1292,42499999236;"A";1;1;NA;"L";"red";"black";"parity";1;300;99;99;99;99
"5831";"5e815773285d3883ba2fbbcf";"BRAC1_horiAL_1st300";2;1;661,974999995437;"A";1;0;NA;"A";"blue";"black";"parity";2;300;0;1;1;1
"5835";"5e815773285d3883ba2fbbcf";"BRAC1_horiAL_1st300";2;2;545,744999952149;"A";1;0;NA;"A";"blue";"black";"magnit";9;300;1;0;0;0
"5839";"5e815773285d3883ba2fbbcf";"BRAC1_horiAL_1st300";2;3;532,739999995101;"A";1;0;NA;"A";"red";"black";"parity";6;300;1;0;1;0
"5843";"5e815773285d3883ba2fbbcf";"BRAC1_horiAL_1st300";2;4;493,190000008326;"A";1;0;NA;"A";"blue";"black";"parity";8;300;0;0;1;0
"5847";"5e815773285d3883ba2fbbcf";"BRAC1_horiAL_1st300";2;5;406,714999990072;"L";1;0;NA;"L";"red";"black";"magnit";4;300;1;1;1;0
"5851";"5e815773285d3883ba2fbbcf";"BRAC1_horiAL_1st300";2;6;461,739999998827;"A";1;0;NA;"A";"blue";"black";"magnit";7;300;0;1;1;0
"5855";"5e815773285d3883ba2fbbcf";"BRAC1_horiAL_1st300";2;7;551,994999987073;"A";1;0;NA;"A";"red";"black";"magnit";9;300;0;0;1;0
"5859";"5e815773285d3883ba2fbbcf";"BRAC1_horiAL_1st300";2;8;556,419999978971;"L";1;0;NA;"L";"red";"black";"parity";3;300;1;1;0;0
"5863";"5e815773285d3883ba2fbbcf";"BRAC1_horiAL_1st300";2;9;406,279999995604;"L";1;0;NA;"L";"blue";"black";"parity";7;300;0;0;1;0
"5867";"5e815773285d3883ba2fbbcf";"BRAC1_horiAL_1st300";2;10;549,820000014734;"A";1;0;NA;"A";"red";"black";"magnit";9;300;1;1;1;0
"5871";"5e815773285d3883ba2fbbcf";"BRAC1_horiAL_1st300";2;11;660,349999961909;"A";1;0;NA;"A";"blue";"black";"magnit";6;300;0;0;1;0
"5875";"5e815773285d3883ba2fbbcf";"BRAC1_horiAL_1st300";2;12;819,619999965653;"L";1;0;NA;"L";"blue";"black";"parity";7;300;1;1;0;0
"5879";"5e815773285d3883ba2fbbcf";"BRAC1_horiAL_1st300";2;13;617,07000003662;"L";1;0;NA;"L";"blue";"black";"magnit";2;300;1;0;0;0
"5883";"5e815773285d3883ba2fbbcf";"BRAC1_horiAL_1st300";2;14;405,734999978449;"L";1;0;NA;"L";"blue";"black";"magnit";1;300;0;0;0;0
"5887";"5e815773285d3883ba2fbbcf";"BRAC1_horiAL_1st300";2;15;422,009999980219;"L";1;0;NA;"L";"red";"black";"magnit";3;300;0;0;1;0
"5891";"5e815773285d3883ba2fbbcf";"BRAC1_horiAL_1st300";2;16;490,500000014435;"A";1;0;NA;"A";"blue";"black";"magnit";9;300;0;1;1;0
"5895";"5e815773285d3883ba2fbbcf";"BRAC1_horiAL_1st300";2;17;453,819999995176;"A";1;0;NA;"A";"blue";"black";"parity";2;300;1;0;0;0
"5899";"5e815773285d3883ba2fbbcf";"BRAC1_horiAL_1st300";2;18;512,519999989308;"A";1;0;NA;"A";"red";"black";"magnit";8;300;1;0;1;0
"5903";"5e815773285d3883ba2fbbcf";"BRAC1_horiAL_1st300";2;19;754,799999995157;"A";1;0;NA;"A";"blue";"black";"magnit";7;300;0;0;1;0
"5907";"5e815773285d3883ba2fbbcf";"BRAC1_horiAL_1st300";2;20;412,255000032019;"A";1;0;NA;"A";"blue";"black";"magnit";6;300;0;0;0;0
"5911";"5e815773285d3883ba2fbbcf";"BRAC1_horiAL_1st300";2;21;1037,76999999536;"L";1;0;NA;"L";"blue";"black";"magnit";3;300;0;1;0;0
"5915";"5e815773285d3883ba2fbbcf";"BRAC1_horiAL_1st300";2;22;468,679999990854;"L";1;0;NA;"L";"red";"black";"magnit";1;300;0;0;1;0
"5919";"5e815773285d3883ba2fbbcf";"BRAC1_horiAL_1st300";2;23;430,174999986775;"A";1;0;NA;"A";"red";"black";"magnit";7;300;0;1;0;0
"5923";"5e815773285d3883ba2fbbcf";"BRAC1_horiAL_1st300";2;24;537,300000025425;"L";1;0;NA;"L";"blue";"black";"parity";1;300;1;1;1;0
"5927";"5e815773285d3883ba2fbbcf";"BRAC1_horiAL_1st300";2;25;869,604999956209;"A";1;0;NA;"A";"red";"black";"parity";8;300;0;1;1;0
"5931";"5e815773285d3883ba2fbbcf";"BRAC1_horiAL_1st300";2;26;452,839999983553;"L";1;0;NA;"L";"blue";"black";"magnit";3;300;1;1;1;0
"5935";"5e815773285d3883ba2fbbcf";"BRAC1_horiAL_1st300";2;27;367,060000018682;"L";1;0;NA;"L";"red";"black";"magnit";2;300;0;0;1;0
"5939";"5e815773285d3883ba2fbbcf";"BRAC1_horiAL_1st300";2;28;576,594999991357;"L";1;0;NA;"L";"red";"black";"parity";7;300;1;0;0;0
"5943";"5e815773285d3883ba2fbbcf";"BRAC1_horiAL_1st300";2;29;566,905000014231;"L";1;0;NA;"L";"red";"black";"parity";1;300;0;0;0;0
"5947";"5e815773285d3883ba2fbbcf";"BRAC1_horiAL_1st300";2;30;865,775000012945;"L";1;0;NA;"L";"blue";"black";"parity";3;300;0;0;1;0
"5951";"5e815773285d3883ba2fbbcf";"BRAC1_horiAL_1st300";2;31;389,109999989159;"L";1;0;NA;"L";"blue";"black";"parity";1;300;0;0;0;0
"5955";"5e815773285d3883ba2fbbcf";"BRAC1_horiAL_1st300";2;32;572,195000015199;"L";1;0;NA;"L";"blue";"black";"parity";9;300;0;0;0;0
"5959";"5e815773285d3883ba2fbbcf";"BRAC1_horiAL_1st300";2;33;599,945000023581;"A";1;0;NA;"A";"red";"black";"parity";8;300;0;1;1;0
"5963";"5e815773285d3883ba2fbbcf";"BRAC1_horiAL_1st300";2;34;521,950000023935;"L";1;0;NA;"L";"red";"black";"parity";7;300;0;1;0;0
"5967";"5e815773285d3883ba2fbbcf";"BRAC1_horiAL_1st300";2;35;543,18500001682;"L";1;0;NA;"L";"red";"black";"parity";9;300;0;0;0;0
"5971";"5e815773285d3883ba2fbbcf";"BRAC1_horiAL_1st300";2;36;689,339999982622;"A";1;0;NA;"A";"blue";"black";"parity";6;300;0;1;1;0
"5975";"5e815773285d3883ba2fbbcf";"BRAC1_horiAL_1st300";2;37;518,14000000013;"L";1;0;NA;"L";"blue";"black";"magnit";1;300;1;1;0;0
"5979";"5e815773285d3883ba2fbbcf";"BRAC1_horiAL_1st300";2;38;600,769999960903;"A";1;0;NA;"A";"red";"black";"parity";2;300;1;1;1;0
"5983";"5e815773285d3883ba2fbbcf";"BRAC1_horiAL_1st300";2;39;459,184999985155;"A";1;0;NA;"A";"red";"black";"parity";4;300;0;0;0;0
"5987";"5e815773285d3883ba2fbbcf";"BRAC1_horiAL_1st300";2;40;499,340000038501;"A";1;0;NA;"A";"red";"black";"magnit";7;300;1;0;0;0
"5991";"5e815773285d3883ba2fbbcf";"BRAC1_horiAL_1st300";2;41;771,260000008624;"A";1;0;NA;"A";"red";"black";"parity";2;300;1;0;0;0
"5995";"5e815773285d3883ba2fbbcf";"BRAC1_horiAL_1st300";2;42;412,239999976009;"A";1;0;NA;"A";"blue";"black";"magnit";8;300;1;0;1;0
"5999";"5e815773285d3883ba2fbbcf";"BRAC1_horiAL_1st300";2;43;984,500000020489;"A";1;1;NA;"L";"blue";"black";"parity";9;300;1;1;0;0
"6003";"5e815773285d3883ba2fbbcf";"BRAC1_horiAL_1st300";2;44;619,550000003073;"L";1;0;NA;"L";"blue";"black";"magnit";2;300;1;0;0;1
"6007";"5e815773285d3883ba2fbbcf";"BRAC1_horiAL_1st300";2;45;489,790000021458;"L";1;0;NA;"L";"blue";"black";"parity";3;300;1;0;0;0
"6011";"5e815773285d3883ba2fbbcf";"BRAC1_horiAL_1st300";2;46;1181,20499997167;"L";1;0;NA;"L";"blue";"black";"magnit";2;300;1;0;0;0
"6015";"5e815773285d3883ba2fbbcf";"BRAC1_horiAL_1st300";2;47;876,430000003893;"A";1;1;NA;"L";"blue";"black";"magnit";3;300;0;0;0;0
"6019";"5e815773285d3883ba2fbbcf";"BRAC1_horiAL_1st300";2;48;813,564999960363;"L";1;0;NA;"L";"blue";"black";"parity";7;300;1;0;0;1
"6023";"5e815773285d3883ba2fbbcf";"BRAC1_horiAL_1st300";2;49;650,685000000522;"A";1;0;NA;"A";"blue";"black";"magnit";8;300;1;1;0;0
"6027";"5e815773285d3883ba2fbbcf";"BRAC1_horiAL_1st300";2;50;1000,49000000581;"L";1;1;NA;"A";"red";"black";"parity";2;300;1;0;1;0
"6031";"5e815773285d3883ba2fbbcf";"BRAC1_horiAL_1st300";2;51;1190,32499997411;"L";1;0;NA;"L";"red";"black";"magnit";1;300;1;1;0;1
"6035";"5e815773285d3883ba2fbbcf";"BRAC1_horiAL_1st300";2;52;589,054999989457;"A";1;0;NA;"A";"red";"black";"parity";8;300;1;1;0;0
"6039";"5e815773285d3883ba2fbbcf";"BRAC1_horiAL_1st300";2;53;509,039999975357;"L";1;0;NA;"L";"red";"black";"parity";9;300;0;1;0;0
"6043";"5e815773285d3883ba2fbbcf";"BRAC1_horiAL_1st300";2;54;500,754999986384;"A";1;0;NA;"A";"blue";"black";"parity";4;300;0;1;1;0
"6047";"5e815773285d3883ba2fbbcf";"BRAC1_horiAL_1st300";2;55;1040,86000000825;"L";1;0;NA;"L";"blue";"black";"parity";3;300;0;1;0;0
"6051";"5e815773285d3883ba2fbbcf";"BRAC1_horiAL_1st300";2;56;759,649999963585;"L";1;0;NA;"L";"red";"black";"magnit";1;300;1;0;1;0
"6055";"5e815773285d3883ba2fbbcf";"BRAC1_horiAL_1st300";2;57;796,210000000428;"A";1;0;NA;"A";"blue";"black";"parity";4;300;1;1;1;0
"6059";"5e815773285d3883ba2fbbcf";"BRAC1_horiAL_1st300";2;58;531,500000040978;"A";1;0;NA;"A";"blue";"black";"magnit";8;300;1;0;0;0
"6063";"5e815773285d3883ba2fbbcf";"BRAC1_horiAL_1st300";2;59;538,735000009183;"L";1;0;NA;"L";"blue";"black";"magnit";4;300;0;1;0;0
"6067";"5e815773285d3883ba2fbbcf";"BRAC1_horiAL_1st300";2;60;534,315000055358;"L";1;0;NA;"L";"red";"black";"parity";1;300;1;0;1;0
"6071";"5e815773285d3883ba2fbbcf";"BRAC1_horiAL_1st300";2;61;512,034999963362;"A";1;0;NA;"A";"red";"black";"parity";4;300;0;1;0;0
"6075";"5e815773285d3883ba2fbbcf";"BRAC1_horiAL_1st300";2;62;1018,72500003083;"L";1;0;NA;"L";"red";"black";"parity";7;300;0;1;0;0
"6079";"5e815773285d3883ba2fbbcf";"BRAC1_horiAL_1st300";2;63;508,22999997763;"L";1;0;NA;"L";"blue";"black";"magnit";4;300;1;0;1;0
"6083";"5e815773285d3883ba2fbbcf";"BRAC1_horiAL_1st300";2;64;434,840000001714;"A";1;0;NA;"A";"blue";"black";"parity";2;300;1;1;0;0
"6087";"5e815773285d3883ba2fbbcf";"BRAC1_horiAL_1st300";2;65;499,704999965616;"A";1;0;NA;"A";"red";"black";"parity";6;300;0;0;1;0
"6091";"5e815773285d3883ba2fbbcf";"BRAC1_horiAL_1st300";2;66;555,255000013858;"A";1;0;NA;"A";"blue";"black";"parity";8;300;0;0;1;0
"6095";"5e815773285d3883ba2fbbcf";"BRAC1_horiAL_1st300";2;67;891,805000021122;"A";1;0;NA;"A";"red";"black";"magnit";6;300;1;0;1;0
"6099";"5e815773285d3883ba2fbbcf";"BRAC1_horiAL_1st300";2;68;567,804999998771;"A";1;0;NA;"A";"red";"black";"magnit";8;300;0;0;0;0
"6103";"5e815773285d3883ba2fbbcf";"BRAC1_horiAL_1st300";2;69;433,924999961164;"A";1;0;NA;"A";"red";"black";"magnit";7;300;0;0;0;0
"6107";"5e815773285d3883ba2fbbcf";"BRAC1_horiAL_1st300";2;70;413,884999987204;"A";1;0;NA;"A";"blue";"black";"magnit";6;300;0;0;1;0
"6111";"5e815773285d3883ba2fbbcf";"BRAC1_horiAL_1st300";2;71;402,91000000434;"A";1;0;NA;"A";"blue";"black";"magnit";7;300;0;0;0;0
"6115";"5e815773285d3883ba2fbbcf";"BRAC1_horiAL_1st300";2;72;584,160000027623;"L";1;0;NA;"L";"red";"black";"parity";3;300;1;1;1;0
"6119";"5e815773285d3883ba2fbbcf";"BRAC1_horiAL_1st300";2;73;577,540000027511;"L";1;0;NA;"L";"red";"black";"magnit";2;300;1;0;0;0
"6123";"5e815773285d3883ba2fbbcf";"BRAC1_horiAL_1st300";2;74;396,254999970552;"A";1;0;NA;"A";"blue";"black";"parity";6;300;1;1;1;0
"6127";"5e815773285d3883ba2fbbcf";"BRAC1_horiAL_1st300";2;75;895,645000040531;"L";1;0;NA;"L";"red";"black";"magnit";3;300;1;1;1;0
"6131";"5e815773285d3883ba2fbbcf";"BRAC1_horiAL_1st300";2;76;775,384999986272;"A";1;0;NA;"A";"blue";"black";"magnit";9;300;0;1;1;0
"6135";"5e815773285d3883ba2fbbcf";"BRAC1_horiAL_1st300";2;77;913,034999975935;"L";1;0;NA;"L";"blue";"black";"magnit";4;300;0;1;0;0
"6139";"5e815773285d3883ba2fbbcf";"BRAC1_horiAL_1st300";2;78;645,394999999553;"A";1;0;NA;"A";"blue";"black";"parity";8;300;1;1;0;0
"6143";"5e815773285d3883ba2fbbcf";"BRAC1_horiAL_1st300";2;79;679,45499997586;"L";1;0;NA;"L";"red";"black";"magnit";4;300;1;1;1;0
"6147";"5e815773285d3883ba2fbbcf";"BRAC1_horiAL_1st300";2;80;873,145000019576;"L";1;0;NA;"L";"blue";"black";"parity";1;300;1;0;1;0
"6151";"5e815773285d3883ba2fbbcf";"BRAC1_horiAL_1st300";2;81;538,144999998622;"A";1;0;NA;"A";"red";"black";"magnit";8;300;1;1;1;0
"6155";"5e815773285d3883ba2fbbcf";"BRAC1_horiAL_1st300";2;82;435,419999994338;"L";1;0;NA;"L";"blue";"black";"magnit";1;300;0;1;1;0
"6159";"5e815773285d3883ba2fbbcf";"BRAC1_horiAL_1st300";2;83;828,684999956749;"L";1;0;NA;"L";"red";"black";"parity";9;300;1;0;1;0
"6163";"5e815773285d3883ba2fbbcf";"BRAC1_horiAL_1st300";2;84;524,325000005774;"A";1;0;NA;"A";"red";"black";"magnit";6;300;1;1;0;0
"6167";"5e815773285d3883ba2fbbcf";"BRAC1_horiAL_1st300";2;85;562,444999988656;"L";1;0;NA;"L";"red";"black";"magnit";4;300;0;1;0;0
"6171";"5e815773285d3883ba2fbbcf";"BRAC1_horiAL_1st300";2;86;483,479999995325;"A";1;0;NA;"A";"red";"black";"magnit";9;300;0;1;0;0
"6175";"5e815773285d3883ba2fbbcf";"BRAC1_horiAL_1st300";2;87;485,175000037998;"A";1;0;NA;"A";"blue";"black";"parity";6;300;1;0;1;0
"6179";"5e815773285d3883ba2fbbcf";"BRAC1_horiAL_1st300";2;88;472,424999985378;"A";1;0;NA;"A";"red";"black";"parity";4;300;0;0;1;0
"6183";"5e815773285d3883ba2fbbcf";"BRAC1_horiAL_1st300";2;89;463,935000007041;"A";1;0;NA;"A";"red";"black";"magnit";6;300;1;0;0;0
"6187";"5e815773285d3883ba2fbbcf";"BRAC1_horiAL_1st300";2;90;759,480000007898;"A";1;0;NA;"A";"blue";"black";"parity";4;300;1;0;1;0
"6191";"5e815773285d3883ba2fbbcf";"BRAC1_horiAL_1st300";2;91;505,774999968708;"L";1;0;NA;"L";"red";"black";"parity";3;300;0;1;1;0
"6195";"5e815773285d3883ba2fbbcf";"BRAC1_horiAL_1st300";2;92;466,964999970514;"L";1;0;NA;"L";"blue";"black";"parity";9;300;0;0;1;0
"6199";"5e815773285d3883ba2fbbcf";"BRAC1_horiAL_1st300";2;93;584,464999963529;"A";1;0;NA;"A";"red";"black";"parity";6;300;0;1;1;0
"6203";"5e815773285d3883ba2fbbcf";"BRAC1_horiAL_1st300";2;94;678,885000001173;"L";1;0;NA;"L";"red";"black";"magnit";2;300;1;1;0;0
"6207";"5e815773285d3883ba2fbbcf";"BRAC1_horiAL_1st300";2;95;647,564999992028;"L";1;0;NA;"L";"red";"black";"magnit";3;300;0;0;0;0
"6212";"5e815773285d3883ba2fbbcf";"BRAC1_horiAL_1st300";3;0;531,285000033677;"A";1;0;NA;"A";"blue";"black";"magnit";8;0;99;99;99;99
"6216";"5e815773285d3883ba2fbbcf";"BRAC1_horiAL_1st300";3;1;483,305000001565;"L";1;0;NA;"L";"blue";"black";"magnit";4;0;0;1;0;0
"6220";"5e815773285d3883ba2fbbcf";"BRAC1_horiAL_1st300";3;2;717,520000005607;"L";1;0;NA;"L";"red";"black";"parity";3;0;1;0;1;0
"6224";"5e815773285d3883ba2fbbcf";"BRAC1_horiAL_1st300";3;3;526,240000035614;"A";1;0;NA;"A";"red";"black";"magnit";7;0;1;1;0;0
"6228";"5e815773285d3883ba2fbbcf";"BRAC1_horiAL_1st300";3;4;677,525000006426;"A";1;0;NA;"A";"red";"black";"parity";2;0;1;0;0;0
"6232";"5e815773285d3883ba2fbbcf";"BRAC1_horiAL_1st300";3;5;488,390000013169;"L";1;0;NA;"L";"blue";"black";"parity";3;0;0;1;1;0
"6236";"5e815773285d3883ba2fbbcf";"BRAC1_horiAL_1st300";3;6;541,704999981448;"A";1;0;NA;"A";"red";"black";"parity";2;0;0;1;1;0
"6240";"5e815773285d3883ba2fbbcf";"BRAC1_horiAL_1st300";3;7;441,944999969564;"A";1;0;NA;"A";"blue";"black";"magnit";7;0;1;0;1;0
"6244";"5e815773285d3883ba2fbbcf";"BRAC1_horiAL_1st300";3;8;685,490000003483;"A";1;1;NA;"L";"blue";"black";"parity";1;0;1;1;0;0
"6248";"5e815773285d3883ba2fbbcf";"BRAC1_horiAL_1st300";3;9;585,79500002088;"L";1;0;NA;"L";"blue";"black";"parity";9;0;0;0;0;1
"6252";"5e815773285d3883ba2fbbcf";"BRAC1_horiAL_1st300";3;10;1261,11500000115;"A";1;0;NA;"A";"red";"black";"magnit";8;0;1;1;1;0
"6256";"5e815773285d3883ba2fbbcf";"BRAC1_horiAL_1st300";3;11;465,23500001058;"A";1;0;NA;"A";"blue";"black";"parity";2;0;1;0;1;0
"6260";"5e815773285d3883ba2fbbcf";"BRAC1_horiAL_1st300";3;12;1644,37499997439;"L";1;0;NA;"L";"red";"black";"parity";7;0;0;1;1;0
"6264";"5e815773285d3883ba2fbbcf";"BRAC1_horiAL_1st300";3;13;535,534999973606;"A";1;0;NA;"A";"blue";"black";"parity";8;0;0;1;1;0
"6268";"5e815773285d3883ba2fbbcf";"BRAC1_horiAL_1st300";3;14;443,835000041872;"L";1;0;NA;"L";"blue";"black";"magnit";1;0;1;1;0;0
"6272";"5e815773285d3883ba2fbbcf";"BRAC1_horiAL_1st300";3;15;887,170000001788;"A";1;0;NA;"A";"red";"black";"parity";8;0;1;1;1;0
"6276";"5e815773285d3883ba2fbbcf";"BRAC1_horiAL_1st300";3;16;682,465000019874;"L";1;0;NA;"L";"blue";"black";"magnit";1;0;1;1;1;0
"6280";"5e815773285d3883ba2fbbcf";"BRAC1_horiAL_1st300";3;17;720,265000010841;"A";1;0;NA;"A";"blue";"black";"magnit";6;0;0;1;0;0
"6284";"5e815773285d3883ba2fbbcf";"BRAC1_horiAL_1st300";3;18;891,260000003967;"L";1;0;NA;"L";"blue";"black";"parity";9;0;1;1;0;0
"6288";"5e815773285d3883ba2fbbcf";"BRAC1_horiAL_1st300";3;19;907,019999984186;"L";1;0;NA;"L";"red";"black";"magnit";2;0;1;0;1;0
"6292";"5e815773285d3883ba2fbbcf";"BRAC1_horiAL_1st300";3;20;835,634999966715;"A";1;0;NA;"A";"blue";"black";"parity";6;0;1;1;1;0
"6296";"5e815773285d3883ba2fbbcf";"BRAC1_horiAL_1st300";3;21;465,254999988247;"L";1;0;NA;"L";"blue";"black";"magnit";4;0;1;1;0;0
"6300";"5e815773285d3883ba2fbbcf";"BRAC1_horiAL_1st300";3;22;711,62999997614;"A";1;0;NA;"A";"red";"black";"magnit";6;0;0;1;1;0
"6304";"5e815773285d3883ba2fbbcf";"BRAC1_horiAL_1st300";3;23;858,254999970086;"A";1;0;NA;"A";"blue";"black";"parity";4;0;1;0;1;0
"6308";"5e815773285d3883ba2fbbcf";"BRAC1_horiAL_1st300";3;24;559,580000001006;"A";1;0;NA;"A";"blue";"black";"magnit";6;0;1;0;0;0
"6312";"5e815773285d3883ba2fbbcf";"BRAC1_horiAL_1st300";3;25;660,065000003669;"A";1;0;NA;"A";"red";"black";"magnit";9;0;0;0;1;0
"6316";"5e815773285d3883ba2fbbcf";"BRAC1_horiAL_1st300";3;26;910,41499999119;"A";1;0;NA;"A";"blue";"black";"parity";6;0;1;0;1;0
"6320";"5e815773285d3883ba2fbbcf";"BRAC1_horiAL_1st300";3;27;483,494999993127;"A";1;0;NA;"A";"blue";"black";"magnit";9;0;1;0;0;0
"6324";"5e815773285d3883ba2fbbcf";"BRAC1_horiAL_1st300";3;28;493,015000014566;"L";1;0;NA;"L";"blue";"black";"parity";1;0;1;1;0;0
"6328";"5e815773285d3883ba2fbbcf";"BRAC1_horiAL_1st300";3;29;626,189999980852;"L";1;0;NA;"L";"red";"black";"magnit";4;0;1;0;1;0
"6332";"5e815773285d3883ba2fbbcf";"BRAC1_horiAL_1st300";3;30;420,100000046659;"A";1;0;NA;"A";"red";"black";"magnit";9;0;0;1;0;0
"6336";"5e815773285d3883ba2fbbcf";"BRAC1_horiAL_1st300";3;31;634,105000004638;"A";1;0;NA;"A";"blue";"black";"magnit";6;0;0;0;1;0
"6340";"5e815773285d3883ba2fbbcf";"BRAC1_horiAL_1st300";3;32;492,929999949411;"L";1;0;NA;"L";"blue";"black";"magnit";3;0;0;1;0;0
"6344";"5e815773285d3883ba2fbbcf";"BRAC1_horiAL_1st300";3;33;590,344999975059;"A";1;1;NA;"L";"red";"black";"parity";7;0;1;0;1;0
"6348";"5e815773285d3883ba2fbbcf";"BRAC1_horiAL_1st300";3;34;640,515000035521;"A";1;0;NA;"A";"red";"black";"parity";8;0;0;1;0;1
"6352";"5e815773285d3883ba2fbbcf";"BRAC1_horiAL_1st300";3;35;460,094999987632;"A";1;0;NA;"A";"red";"black";"magnit";9;0;1;0;0;0
"6356";"5e815773285d3883ba2fbbcf";"BRAC1_horiAL_1st300";3;36;666,150000004563;"L";1;0;NA;"L";"red";"black";"magnit";2;0;0;1;0;0
"6360";"5e815773285d3883ba2fbbcf";"BRAC1_horiAL_1st300";3;37;1816,15999998758;"A";1;0;NA;"A";"blue";"black";"magnit";8;0;0;1;1;0
"6364";"5e815773285d3883ba2fbbcf";"BRAC1_horiAL_1st300";3;38;820,479999994859;"L";1;0;NA;"L";"blue";"black";"magnit";2;0;0;1;0;0
"6368";"5e815773285d3883ba2fbbcf";"BRAC1_horiAL_1st300";3;39;1320,550000004;"L";1;0;NA;"L";"red";"black";"parity";1;0;1;0;1;0
"6372";"5e815773285d3883ba2fbbcf";"BRAC1_horiAL_1st300";3;40;435,939999995753;"A";1;0;NA;"A";"red";"black";"parity";4;0;0;1;0;0
"6376";"5e815773285d3883ba2fbbcf";"BRAC1_horiAL_1st300";3;41;462,07999996841;"L";1;0;NA;"L";"red";"black";"magnit";3;0;1;1;0;0
"6380";"5e815773285d3883ba2fbbcf";"BRAC1_horiAL_1st300";3;42;498,610000009649;"A";1;0;NA;"A";"red";"black";"magnit";6;0;0;1;0;0
"6384";"5e815773285d3883ba2fbbcf";"BRAC1_horiAL_1st300";3;43;479,649999993853;"A";1;0;NA;"A";"blue";"black";"parity";2;0;1;0;1;0
"6388";"5e815773285d3883ba2fbbcf";"BRAC1_horiAL_1st300";3;44;373,565000016242;"A";1;0;NA;"A";"blue";"black";"parity";4;0;0;0;0;0
"6392";"5e815773285d3883ba2fbbcf";"BRAC1_horiAL_1st300";3;45;385,284999967553;"L";1;0;NA;"L";"blue";"black";"parity";1;0;0;1;0;0
"6396";"5e815773285d3883ba2fbbcf";"BRAC1_horiAL_1st300";3;46;473,330000007991;"L";1;0;NA;"L";"blue";"black";"parity";3;0;0;0;0;0
"6400";"5e815773285d3883ba2fbbcf";"BRAC1_horiAL_1st300";3;47;395,390000019688;"L";1;0;NA;"L";"red";"black";"magnit";1;0;1;0;1;0
"6404";"5e815773285d3883ba2fbbcf";"BRAC1_horiAL_1st300";3;48;396,60500001628;"L";1;0;NA;"L";"blue";"black";"magnit";2;0;0;0;1;0
"6408";"5e815773285d3883ba2fbbcf";"BRAC1_horiAL_1st300";3;49;443,625000014435;"L";1;0;NA;"L";"red";"black";"parity";1;0;1;0;1;0
"6412";"5e815773285d3883ba2fbbcf";"BRAC1_horiAL_1st300";3;50;456,030000001192;"L";1;0;NA;"L";"blue";"black";"parity";7;0;0;0;1;0
"6416";"5e815773285d3883ba2fbbcf";"BRAC1_horiAL_1st300";3;51;426,435000030324;"L";1;0;NA;"L";"red";"black";"parity";9;0;0;0;1;0
"6420";"5e815773285d3883ba2fbbcf";"BRAC1_horiAL_1st300";3;52;358,37500001071;"L";1;0;NA;"L";"red";"black";"parity";1;0;0;0;0;0
"6424";"5e815773285d3883ba2fbbcf";"BRAC1_horiAL_1st300";3;53;415,875000006054;"A";1;0;NA;"A";"red";"black";"parity";6;0;0;1;0;0
"6428";"5e815773285d3883ba2fbbcf";"BRAC1_horiAL_1st300";3;54;439,610000001267;"A";1;0;NA;"A";"blue";"black";"magnit";7;0;1;0;1;0
"6432";"5e815773285d3883ba2fbbcf";"BRAC1_horiAL_1st300";3;55;501,459999999497;"L";1;0;NA;"L";"blue";"black";"magnit";3;0;0;1;0;0
"6436";"5e815773285d3883ba2fbbcf";"BRAC1_horiAL_1st300";3;56;625,984999991488;"A";1;0;NA;"A";"red";"black";"parity";8;0;1;1;1;0
"6440";"5e815773285d3883ba2fbbcf";"BRAC1_horiAL_1st300";3;57;858,259999949951;"L";1;0;NA;"L";"blue";"black";"parity";7;0;0;1;1;0
"6444";"5e815773285d3883ba2fbbcf";"BRAC1_horiAL_1st300";3;58;809,895000013057;"L";1;0;NA;"L";"red";"black";"parity";3;0;0;0;1;0
"6448";"5e815773285d3883ba2fbbcf";"BRAC1_horiAL_1st300";3;59;510,490000015125;"A";1;0;NA;"A";"red";"black";"magnit";7;0;1;1;0;0
"6452";"5e815773285d3883ba2fbbcf";"BRAC1_horiAL_1st300";3;60;448,71000002604;"L";1;0;NA;"L";"blue";"black";"magnit";3;0;0;1;1;0
"6456";"5e815773285d3883ba2fbbcf";"BRAC1_horiAL_1st300";3;61;409,369999950286;"L";1;0;NA;"L";"blue";"black";"magnit";2;0;0;0;0;0
"6460";"5e815773285d3883ba2fbbcf";"BRAC1_horiAL_1st300";3;62;1173,60999999801;"L";1;1;NA;"A";"red";"black";"parity";4;0;1;1;1;0
"6464";"5e815773285d3883ba2fbbcf";"BRAC1_horiAL_1st300";3;63;740,33999996027;"L";1;0;NA;"L";"blue";"black";"parity";7;0;0;1;1;1
"6468";"5e815773285d3883ba2fbbcf";"BRAC1_horiAL_1st300";3;64;956,804999965243;"A";1;0;NA;"A";"blue";"black";"parity";6;0;0;1;0;0
"6472";"5e815773285d3883ba2fbbcf";"BRAC1_horiAL_1st300";3;65;379,695000010543;"L";1;0;NA;"L";"red";"black";"magnit";3;0;1;1;1;0
"6476";"5e815773285d3883ba2fbbcf";"BRAC1_horiAL_1st300";3;66;689,300000027288;"L";1;0;NA;"L";"red";"black";"magnit";4;0;0;0;0;0
"6480";"5e815773285d3883ba2fbbcf";"BRAC1_horiAL_1st300";3;67;437,644999998156;"L";1;0;NA;"L";"red";"black";"magnit";1;0;0;0;0;0
"6484";"5e815773285d3883ba2fbbcf";"BRAC1_horiAL_1st300";3;68;864,704999956302;"A";1;0;NA;"A";"red";"black";"magnit";7;0;0;1;0;0
"6488";"5e815773285d3883ba2fbbcf";"BRAC1_horiAL_1st300";3;69;453,640000021551;"A";1;0;NA;"A";"blue";"black";"magnit";8;0;0;0;1;0
"6492";"5e815773285d3883ba2fbbcf";"BRAC1_horiAL_1st300";3;70;400,005000003148;"L";1;0;NA;"L";"red";"black";"magnit";1;0;0;1;1;0
"6496";"5e815773285d3883ba2fbbcf";"BRAC1_horiAL_1st300";3;71;429,674999963026;"A";1;0;NA;"A";"blue";"black";"parity";4;0;1;1;1;0
"6500";"5e815773285d3883ba2fbbcf";"BRAC1_horiAL_1st300";3;72;524,509999959264;"L";1;0;NA;"L";"red";"black";"parity";3;0;0;1;1;0
"6504";"5e815773285d3883ba2fbbcf";"BRAC1_horiAL_1st300";3;73;501,944999967236;"L";1;0;NA;"L";"red";"black";"parity";7;0;0;0;0;0
"6508";"5e815773285d3883ba2fbbcf";"BRAC1_horiAL_1st300";3;74;1466,39499999583;"L";1;0;NA;"L";"red";"black";"parity";9;0;0;0;0;0
"6512";"5e815773285d3883ba2fbbcf";"BRAC1_horiAL_1st300";3;75;1026,45000000484;"L";1;0;NA;"L";"blue";"black";"parity";3;0;0;0;1;0
"6516";"5e815773285d3883ba2fbbcf";"BRAC1_horiAL_1st300";3;76;549,330000008922;"A";1;0;NA;"A";"blue";"black";"magnit";9;0;1;1;0;0
"6520";"5e815773285d3883ba2fbbcf";"BRAC1_horiAL_1st300";3;77;1175,03499996383;"A";1;0;NA;"A";"red";"black";"parity";4;0;1;0;1;0
"6524";"5e815773285d3883ba2fbbcf";"BRAC1_horiAL_1st300";3;78;498,915000003763;"A";1;0;NA;"A";"red";"black";"magnit";6;0;1;0;0;0
"6528";"5e815773285d3883ba2fbbcf";"BRAC1_horiAL_1st300";3;79;791,575000039302;"A";1;0;NA;"A";"red";"black";"parity";2;0;1;0;0;0
"6532";"5e815773285d3883ba2fbbcf";"BRAC1_horiAL_1st300";3;80;478,439999977127;"A";1;0;NA;"A";"blue";"black";"magnit";9;0;1;0;1;0
"6536";"5e815773285d3883ba2fbbcf";"BRAC1_horiAL_1st300";3;81;644,06500000041;"L";1;0;NA;"L";"red";"black";"magnit";3;0;0;1;1;0
"6540";"5e815773285d3883ba2fbbcf";"BRAC1_horiAL_1st300";3;82;463,984999980312;"L";1;0;NA;"L";"blue";"black";"magnit";4;0;0;0;1;0
"6544";"5e815773285d3883ba2fbbcf";"BRAC1_horiAL_1st300";3;83;387,875000014901;"A";1;0;NA;"A";"red";"black";"magnit";8;0;0;1;1;0
"6548";"5e815773285d3883ba2fbbcf";"BRAC1_horiAL_1st300";3;84;488,125000032596;"A";1;0;NA;"A";"red";"black";"parity";6;0;1;0;0;0
"6552";"5e815773285d3883ba2fbbcf";"BRAC1_horiAL_1st300";3;85;373,910000023898;"L";1;0;NA;"L";"red";"black";"magnit";2;0;1;1;0;0
"6556";"5e815773285d3883ba2fbbcf";"BRAC1_horiAL_1st300";3;86;585,924999963026;"A";1;0;NA;"A";"red";"black";"parity";6;0;1;1;0;0
"6560";"5e815773285d3883ba2fbbcf";"BRAC1_horiAL_1st300";3;87;526,394999993499;"L";1;0;NA;"L";"red";"black";"magnit";4;0;1;1;0;0
"6564";"5e815773285d3883ba2fbbcf";"BRAC1_horiAL_1st300";3;88;1013,64999997895;"A";1;0;NA;"A";"blue";"black";"parity";8;0;1;1;1;0
"6568";"5e815773285d3883ba2fbbcf";"BRAC1_horiAL_1st300";3;89;1132,06999999238;"L";1;0;NA;"L";"red";"black";"parity";9;0;0;1;1;0
"6572";"5e815773285d3883ba2fbbcf";"BRAC1_horiAL_1st300";3;90;424,77499996312;"A";1;0;NA;"A";"blue";"black";"parity";2;0;0;1;1;0
"6576";"5e815773285d3883ba2fbbcf";"BRAC1_horiAL_1st300";3;91;1164,17499998352;"A";1;0;NA;"A";"blue";"black";"magnit";7;0;1;0;0;0
"6580";"5e815773285d3883ba2fbbcf";"BRAC1_horiAL_1st300";3;92;875,289999996312;"A";1;1;NA;"L";"blue";"black";"parity";9;0;1;1;0;0
"6584";"5e815773285d3883ba2fbbcf";"BRAC1_horiAL_1st300";3;93;1263,89999996172;"L";1;1;NA;"A";"red";"black";"magnit";8;0;1;1;1;1
"6588";"5e815773285d3883ba2fbbcf";"BRAC1_horiAL_1st300";3;94;1216,33999998448;"L";1;0;NA;"L";"blue";"black";"magnit";1;0;0;1;1;1
"6592";"5e815773285d3883ba2fbbcf";"BRAC1_horiAL_1st300";3;95;1436,57499999972;"A";1;0;NA;"A";"blue";"black";"parity";8;0;1;1;0;0
"6670";"5e94f775cb8df5376b30b363";"BRAC1_horiLL_1st0";0;0;932,109999994282;"L";1;0;NA;"L";"blue";"black";"magnit";6;0;99;99;99;99
"6674";"5e94f775cb8df5376b30b363";"BRAC1_horiLL_1st0";0;1;854,875000019092;"L";1;0;NA;"L";"red";"black";"magnit";9;0;0;0;1;0
"6678";"5e94f775cb8df5376b30b363";"BRAC1_horiLL_1st0";0;2;634,775000042282;"L";1;1;NA;"A";"red";"black";"parity";6;0;1;1;0;0
"6682";"5e94f775cb8df5376b30b363";"BRAC1_horiLL_1st0";0;3;1774,49500001967;"A";1;0;NA;"A";"red";"black";"magnit";4;0;1;0;0;1
"6686";"5e94f775cb8df5376b30b363";"BRAC1_horiLL_1st0";0;4;787,75499999756;"A";1;0;NA;"A";"blue";"black";"magnit";2;0;0;0;1;0
"6690";"5e94f775cb8df5376b30b363";"BRAC1_horiLL_1st0";0;5;997,350000019651;"L";1;0;NA;"L";"red";"black";"magnit";8;0;0;1;1;0
"6694";"5e94f775cb8df5376b30b363";"BRAC1_horiLL_1st0";0;6;2502,37700000001;NA;NA;1;1;"A";"blue";"black";"parity";6;0;1;1;1;0
"6698";"5e94f775cb8df5376b30b363";"BRAC1_horiLL_1st0";0;7;1181,90999998478;"A";1;0;NA;"A";"blue";"black";"magnit";3;0;1;0;0;1
"6702";"5e94f775cb8df5376b30b363";"BRAC1_horiLL_1st0";0;8;720,444999984466;"L";1;1;NA;"A";"blue";"black";"parity";8;0;1;0;0;0
"6706";"5e94f775cb8df5376b30b363";"BRAC1_horiLL_1st0";0;9;1429,76500000805;"L";1;0;NA;"L";"red";"black";"parity";7;0;0;1;1;1
"6710";"5e94f775cb8df5376b30b363";"BRAC1_horiLL_1st0";0;10;1805,88499997975;"A";1;0;NA;"A";"blue";"black";"magnit";3;0;1;1;1;0
