"";"pp";"counterbalance";"blockNum";"trialNum";"rt";"Response";"Attempt";"error";"Timed.Out";"ANSWER";"cuecolor";"framecolor";"task";"stimulus";"cocoa";"task_R";"ANSWER_R";"cuecolor_R";"error_R"
"76";"NW8";"BRAC1_vertAA_1st300";0;0;1713,51500006858;"L";1;0;NA;"L";"red";"black";"magnit";1;300;99;99;99;99
"80";"NW8";"BRAC1_vertAA_1st300";0;1;1511,79000001866;"A";1;0;NA;"A";"red";"black";"magnit";7;300;0;1;0;0
"84";"NW8";"BRAC1_vertAA_1st300";0;2;1195,8099999465;"L";1;0;NA;"L";"red";"black";"magnit";1;300;0;1;0;0
"88";"NW8";"BRAC1_vertAA_1st300";0;3;1654,60999996867;"A";1;0;NA;"A";"blue";"black";"magnit";7;300;0;1;1;0
"92";"NW8";"BRAC1_vertAA_1st300";0;4;1333,44499999657;"L";1;0;NA;"L";"red";"black";"parity";8;300;1;1;1;0
"96";"NW8";"BRAC1_vertAA_1st300";0;5;1398,21000001393;"L";1;0;NA;"L";"blue";"black";"magnit";2;300;1;0;1;0
"100";"NW8";"BRAC1_vertAA_1st300";0;6;1276,40500001144;"A";1;0;NA;"A";"red";"black";"parity";7;300;1;1;1;0
"104";"NW8";"BRAC1_vertAA_1st300";0;7;1125,57999999262;"A";1;0;NA;"A";"red";"black";"parity";9;300;0;0;0;0
"108";"NW8";"BRAC1_vertAA_1st300";0;8;1892,42499996908;"A";1;1;NA;"L";"blue";"black";"magnit";4;300;1;1;1;0
"112";"NW8";"BRAC1_vertAA_1st300";0;9;1495,86000002455;"A";1;0;NA;"A";"blue";"black";"magnit";7;300;0;1;0;1
"116";"NW8";"BRAC1_vertAA_1st300";0;10;1522,3850000184;"L";1;0;NA;"L";"blue";"black";"parity";4;300;1;1;0;0
"120";"NW8";"BRAC1_vertAA_1st300";0;11;1667,15500003193;"A";1;0;NA;"A";"blue";"black";"parity";1;300;0;1;0;0
"124";"NW8";"BRAC1_vertAA_1st300";0;12;1096,22000006493;"A";1;0;NA;"A";"blue";"black";"magnit";8;300;1;0;0;0
"128";"NW8";"BRAC1_vertAA_1st300";0;13;2041,45500005689;"A";1;0;NA;"A";"red";"black";"parity";9;300;1;0;1;0
"132";"NW8";"BRAC1_vertAA_1st300";0;14;1130,42499998119;"A";1;0;NA;"A";"blue";"black";"parity";3;300;0;0;1;0
"136";"NW8";"BRAC1_vertAA_1st300";0;15;953,59000004828;"L";1;0;NA;"L";"blue";"black";"magnit";1;300;1;1;0;0
"140";"NW8";"BRAC1_vertAA_1st300";0;16;1565,21000002977;"A";1;0;NA;"A";"red";"black";"magnit";9;300;0;1;1;0
"144";"NW8";"BRAC1_vertAA_1st300";0;17;1268,92499998212;"L";1;0;NA;"L";"blue";"black";"parity";2;300;1;1;1;0
"148";"NW8";"BRAC1_vertAA_1st300";0;18;1938,44499997795;"A";1;0;NA;"A";"blue";"black";"parity";1;300;0;1;0;0
"152";"NW8";"BRAC1_vertAA_1st300";0;19;960,259999963455;"A";1;0;NA;"A";"blue";"black";"magnit";8;300;1;0;0;0
"156";"NW8";"BRAC1_vertAA_1st300";0;20;1822,89499999024;"A";1;0;NA;"A";"blue";"black";"parity";1;300;1;0;0;0
"160";"NW8";"BRAC1_vertAA_1st300";0;21;969,475000048988;"L";1;0;NA;"L";"blue";"black";"magnit";3;300;1;1;0;0
"164";"NW8";"BRAC1_vertAA_1st300";0;22;1678,27499995474;"L";1;0;NA;"L";"blue";"black";"parity";6;300;1;0;0;0
"168";"NW8";"BRAC1_vertAA_1st300";0;23;2084,37499997672;"A";1;0;NA;"A";"red";"black";"magnit";9;300;1;1;1;0
"172";"NW8";"BRAC1_vertAA_1st300";0;24;892,88000005763;"L";1;1;NA;"A";"red";"black";"parity";1;300;1;0;0;0
"176";"NW8";"BRAC1_vertAA_1st300";0;25;1121,84000003617;"L";1;0;NA;"L";"red";"black";"parity";4;300;0;1;0;1
"180";"NW8";"BRAC1_vertAA_1st300";0;26;1092,73000003304;"A";1;0;NA;"A";"red";"black";"magnit";6;300;1;1;0;0
"184";"NW8";"BRAC1_vertAA_1st300";0;27;1263,50000000093;"A";1;0;NA;"A";"red";"black";"parity";9;300;1;0;0;0
"188";"NW8";"BRAC1_vertAA_1st300";0;28;987,554999999702;"L";1;0;NA;"L";"blue";"black";"magnit";1;300;1;1;1;0
"192";"NW8";"BRAC1_vertAA_1st300";0;29;1462,45499991346;"L";1;0;NA;"L";"red";"black";"parity";2;300;1;0;1;0
"196";"NW8";"BRAC1_vertAA_1st300";0;30;1290,01500003505;"L";1;0;NA;"L";"blue";"black";"magnit";3;300;1;0;1;0
"200";"NW8";"BRAC1_vertAA_1st300";0;31;1512,95000000391;"L";1;0;NA;"L";"blue";"black";"parity";2;300;1;0;0;0
"204";"NW8";"BRAC1_vertAA_1st300";0;32;2131,89999992028;"A";1;0;NA;"A";"blue";"black";"parity";7;300;0;1;0;0
"208";"NW8";"BRAC1_vertAA_1st300";0;33;1262,25000002887;"L";1;0;NA;"L";"red";"black";"parity";4;300;0;1;1;0
"212";"NW8";"BRAC1_vertAA_1st300";0;34;2501,14399999997;NA;NA;1;1;"L";"red";"black";"magnit";2;300;1;0;0;0
"216";"NW8";"BRAC1_vertAA_1st300";0;35;1697,48999993317;"A";1;0;NA;"A";"blue";"black";"magnit";6;300;0;1;1;1
"220";"NW8";"BRAC1_vertAA_1st300";0;36;2500,89799999999;NA;NA;1;1;"A";"blue";"black";"parity";7;300;1;0;0;0
"224";"NW8";"BRAC1_vertAA_1st300";0;37;1213,91499997117;"L";1;1;NA;"A";"red";"black";"magnit";6;300;1;0;1;1
"228";"NW8";"BRAC1_vertAA_1st300";0;38;890,140000032261;"L";1;1;NA;"A";"red";"black";"magnit";8;300;0;0;0;1
"232";"NW8";"BRAC1_vertAA_1st300";0;39;1477,94499993324;"A";1;0;NA;"A";"red";"black";"parity";7;300;1;0;0;1
"236";"NW8";"BRAC1_vertAA_1st300";0;40;1064,08500007819;"A";1;0;NA;"A";"red";"black";"parity";3;300;0;0;0;0
"240";"NW8";"BRAC1_vertAA_1st300";0;41;747,199999983422;"L";1;0;NA;"L";"blue";"black";"magnit";4;300;1;1;1;0
"244";"NW8";"BRAC1_vertAA_1st300";0;42;1397,02000003308;"A";1;0;NA;"A";"red";"black";"magnit";8;300;0;1;1;0
"248";"NW8";"BRAC1_vertAA_1st300";0;43;1729,09499995876;"L";1;0;NA;"L";"blue";"black";"parity";4;300;1;1;1;0
"252";"NW8";"BRAC1_vertAA_1st300";0;44;2500,89199999999;NA;NA;1;1;"L";"blue";"black";"magnit";1;300;1;0;0;0
"256";"NW8";"BRAC1_vertAA_1st300";0;45;2405,6499999715;"L";1;0;NA;"L";"red";"black";"magnit";4;300;0;0;1;1
"260";"NW8";"BRAC1_vertAA_1st300";0;46;1040,67000001669;"A";1;0;NA;"A";"red";"black";"magnit";9;300;0;1;0;0
"264";"NW8";"BRAC1_vertAA_1st300";0;47;1691,40999997035;"L";1;0;NA;"L";"blue";"black";"magnit";2;300;0;1;1;0
"268";"NW8";"BRAC1_vertAA_1st300";0;48;2500,89899999998;NA;NA;1;1;"L";"blue";"black";"parity";6;300;1;0;0;0
"272";"NW8";"BRAC1_vertAA_1st300";0;49;1775,03500005696;"L";1;0;NA;"L";"red";"black";"parity";4;300;0;0;1;1
"276";"NW8";"BRAC1_vertAA_1st300";0;50;1359,05500000808;"A";1;0;NA;"A";"blue";"black";"magnit";6;300;1;1;1;0
"280";"NW8";"BRAC1_vertAA_1st300";0;51;2500,93200000003;NA;NA;1;1;"A";"blue";"black";"magnit";9;300;0;0;0;0
"284";"NW8";"BRAC1_vertAA_1st300";0;52;1783,62500004005;"A";1;0;NA;"A";"red";"black";"magnit";7;300;0;0;1;1
"288";"NW8";"BRAC1_vertAA_1st300";0;53;1415,48500000499;"L";1;0;NA;"L";"red";"black";"magnit";2;300;0;1;0;0
"292";"NW8";"BRAC1_vertAA_1st300";0;54;834,934999933466;"L";1;0;NA;"L";"red";"black";"magnit";3;300;0;0;0;0
"296";"NW8";"BRAC1_vertAA_1st300";0;55;953,575000050478;"A";1;0;NA;"A";"red";"black";"magnit";7;300;0;1;0;0
"300";"NW8";"BRAC1_vertAA_1st300";0;56;1665,91999994125;"A";1;1;NA;"L";"blue";"black";"parity";8;300;1;1;1;0
"304";"NW8";"BRAC1_vertAA_1st300";0;57;1325,75000007637;"L";1;0;NA;"L";"blue";"black";"parity";4;300;0;0;0;1
"308";"NW8";"BRAC1_vertAA_1st300";0;58;1320,88999997359;"L";1;0;NA;"L";"red";"black";"magnit";3;300;1;0;1;0
"312";"NW8";"BRAC1_vertAA_1st300";0;59;2047,11500008125;"A";1;0;NA;"A";"red";"black";"parity";1;300;1;1;0;0
"316";"NW8";"BRAC1_vertAA_1st300";0;60;1176,38499999885;"L";1;0;NA;"L";"red";"black";"parity";6;300;0;1;0;0
"320";"NW8";"BRAC1_vertAA_1st300";0;61;1507,00000009965;"L";1;0;NA;"L";"blue";"black";"parity";2;300;0;0;1;0
"324";"NW8";"BRAC1_vertAA_1st300";0;62;2500,90599999996;NA;NA;1;1;"A";"blue";"black";"parity";3;300;0;1;0;0
"328";"NW8";"BRAC1_vertAA_1st300";0;63;786,20500001125;"L";1;0;NA;"L";"blue";"black";"magnit";2;300;1;1;0;1
"332";"NW8";"BRAC1_vertAA_1st300";0;64;676,464999909513;"L";1;0;NA;"L";"red";"black";"magnit";3;300;0;0;1;0
"336";"NW8";"BRAC1_vertAA_1st300";0;65;762,625000090338;"A";1;0;NA;"A";"blue";"black";"magnit";9;300;0;1;1;0
"340";"NW8";"BRAC1_vertAA_1st300";0;66;1322,84499995876;"L";1;0;NA;"L";"red";"black";"magnit";4;300;0;1;1;0
"344";"NW8";"BRAC1_vertAA_1st300";0;67;780,320000019856;"L";1;0;NA;"L";"red";"black";"magnit";2;300;0;0;0;0
"348";"NW8";"BRAC1_vertAA_1st300";0;68;1980,6249999674;"L";1;0;NA;"L";"red";"black";"parity";6;300;1;0;0;0
"352";"NW8";"BRAC1_vertAA_1st300";0;69;1080,07999998517;"A";1;0;NA;"A";"blue";"black";"parity";9;300;0;1;1;0
"356";"NW8";"BRAC1_vertAA_1st300";0;70;2501,22999999998;NA;NA;1;1;"L";"red";"black";"parity";2;300;0;1;1;0
"360";"NW8";"BRAC1_vertAA_1st300";0;71;899,329999927431;"A";1;0;NA;"A";"red";"black";"parity";3;300;0;1;0;1
"364";"NW8";"BRAC1_vertAA_1st300";0;72;799,800000037067;"L";1;0;NA;"L";"blue";"black";"magnit";4;300;1;1;1;0
"368";"NW8";"BRAC1_vertAA_1st300";0;73;1230,1649999572;"A";1;1;NA;"L";"blue";"black";"parity";8;300;1;0;0;0
"372";"NW8";"BRAC1_vertAA_1st300";0;74;1333,19499995559;"A";1;0;NA;"A";"blue";"black";"parity";7;300;0;1;0;1
"376";"NW8";"BRAC1_vertAA_1st300";0;75;795,010000001639;"L";1;0;NA;"L";"blue";"black";"magnit";3;300;1;1;0;0
"380";"NW8";"BRAC1_vertAA_1st300";0;76;911,765000084415;"L";1;0;NA;"L";"red";"black";"magnit";1;300;0;0;1;0
"384";"NW8";"BRAC1_vertAA_1st300";0;77;2176,91999999806;"A";1;0;NA;"A";"blue";"black";"parity";9;300;1;1;1;0
"388";"NW8";"BRAC1_vertAA_1st300";0;78;922,750000027008;"A";1;0;NA;"A";"blue";"black";"parity";3;300;0;0;0;0
"392";"NW8";"BRAC1_vertAA_1st300";0;79;1221,14999999758;"A";1;0;NA;"A";"blue";"black";"magnit";9;300;1;0;0;0
"396";"NW8";"BRAC1_vertAA_1st300";0;80;967,310000094585;"A";1;0;NA;"A";"blue";"black";"magnit";8;300;0;0;0;0
"400";"NW8";"BRAC1_vertAA_1st300";0;81;1266,76999998745;"A";1;0;NA;"A";"red";"black";"magnit";6;300;0;0;1;0
"404";"NW8";"BRAC1_vertAA_1st300";0;82;2501,02800000005;NA;NA;1;1;"A";"red";"black";"parity";3;300;1;0;0;0
"408";"NW8";"BRAC1_vertAA_1st300";0;83;1462,03500009142;"A";1;0;NA;"A";"blue";"black";"magnit";6;300;1;0;1;1
"412";"NW8";"BRAC1_vertAA_1st300";0;84;946,615000022575;"A";1;0;NA;"A";"red";"black";"magnit";8;300;0;0;1;0
"416";"NW8";"BRAC1_vertAA_1st300";0;85;2120,61500002164;"L";1;0;NA;"L";"red";"black";"parity";2;300;1;1;0;0
"420";"NW8";"BRAC1_vertAA_1st300";0;86;1654,76999990642;"A";1;0;NA;"A";"red";"black";"parity";7;300;0;1;0;0
"424";"NW8";"BRAC1_vertAA_1st300";0;87;1465,57999996003;"A";1;0;NA;"A";"blue";"black";"parity";9;300;0;0;1;0
"428";"NW8";"BRAC1_vertAA_1st300";0;88;1556,36499996763;"L";1;0;NA;"L";"red";"black";"parity";8;300;0;1;1;0
"432";"NW8";"BRAC1_vertAA_1st300";0;89;1194,18500002939;"A";1;0;NA;"A";"red";"black";"parity";1;300;0;1;0;0
"436";"NW8";"BRAC1_vertAA_1st300";0;90;970,395000069402;"L";1;0;NA;"L";"blue";"black";"parity";8;300;0;1;1;0
"440";"NW8";"BRAC1_vertAA_1st300";0;91;2381,06000004336;"L";1;1;NA;"A";"blue";"black";"magnit";7;300;1;1;0;0
"444";"NW8";"BRAC1_vertAA_1st300";0;92;2077,86499999929;"L";1;0;NA;"L";"red";"black";"parity";8;300;1;1;1;1
"448";"NW8";"BRAC1_vertAA_1st300";0;93;1073,23500001803;"L";1;0;NA;"L";"blue";"black";"parity";6;300;0;0;1;0
"452";"NW8";"BRAC1_vertAA_1st300";0;94;1698,80500005092;"L";1;0;NA;"L";"red";"black";"magnit";4;300;1;0;1;0
"456";"NW8";"BRAC1_vertAA_1st300";0;95;2271,31999994162;"L";1;0;NA;"L";"red";"black";"parity";6;300;1;0;0;0
"461";"NW8";"BRAC1_vertAA_1st300";1;0;2501,25699999998;NA;NA;1;1;"L";"blue";"black";"magnit";2;0;99;99;99;99
"465";"NW8";"BRAC1_vertAA_1st300";1;1;1503,55499994475;"A";1;0;NA;"A";"blue";"black";"parity";9;0;1;1;0;1
"469";"NW8";"BRAC1_vertAA_1st300";1;2;999,594999942929;"L";1;0;NA;"L";"blue";"black";"magnit";3;0;1;1;0;0
"473";"NW8";"BRAC1_vertAA_1st300";1;3;1784,23500002827;"L";1;0;NA;"L";"red";"black";"parity";4;0;1;0;1;0
"477";"NW8";"BRAC1_vertAA_1st300";1;4;1687,42500001099;"L";1;1;NA;"A";"blue";"black";"parity";1;0;0;1;1;0
"481";"NW8";"BRAC1_vertAA_1st300";1;5;644,68999998644;"L";1;0;NA;"L";"red";"black";"parity";6;0;0;1;1;1
"485";"NW8";"BRAC1_vertAA_1st300";1;6;782,41500002332;"A";1;0;NA;"A";"red";"black";"parity";3;0;0;1;0;0
"489";"NW8";"BRAC1_vertAA_1st300";1;7;1053,25500003528;"A";1;0;NA;"A";"red";"black";"magnit";9;0;1;0;0;0
"493";"NW8";"BRAC1_vertAA_1st300";1;8;1906,4800000051;"A";1;0;NA;"A";"blue";"black";"parity";3;0;1;0;1;0
"497";"NW8";"BRAC1_vertAA_1st300";1;9;662,239999976009;"A";1;0;NA;"A";"red";"black";"parity";1;0;0;0;1;0
"501";"NW8";"BRAC1_vertAA_1st300";1;10;2128,78500006627;"L";1;0;NA;"L";"red";"black";"magnit";4;0;1;1;0;0
"505";"NW8";"BRAC1_vertAA_1st300";1;11;699,215000029653;"A";1;0;NA;"A";"blue";"black";"magnit";8;0;0;1;1;0
"509";"NW8";"BRAC1_vertAA_1st300";1;12;890,970000065863;"A";1;0;NA;"A";"blue";"black";"magnit";6;0;0;0;0;0
"513";"NW8";"BRAC1_vertAA_1st300";1;13;1486,58999998588;"A";1;0;NA;"A";"blue";"black";"parity";1;0;1;0;0;0
"517";"NW8";"BRAC1_vertAA_1st300";1;14;2083,59499997459;"L";1;0;NA;"L";"blue";"black";"parity";4;0;0;1;0;0
"521";"NW8";"BRAC1_vertAA_1st300";1;15;2052,32000001706;"L";1;0;NA;"L";"blue";"black";"parity";2;0;0;0;0;0
"525";"NW8";"BRAC1_vertAA_1st300";1;16;2306,92499992438;"A";1;0;NA;"A";"blue";"black";"magnit";9;0;1;1;0;0
"529";"NW8";"BRAC1_vertAA_1st300";1;17;1003,70500003919;"L";1;0;NA;"L";"red";"black";"parity";2;0;1;1;1;0
"533";"NW8";"BRAC1_vertAA_1st300";1;18;912,804999970831;"L";1;0;NA;"L";"red";"black";"parity";8;0;0;0;0;0
"537";"NW8";"BRAC1_vertAA_1st300";1;19;579,22499999404;"A";1;0;NA;"A";"red";"black";"parity";1;0;0;1;0;0
"541";"NW8";"BRAC1_vertAA_1st300";1;20;779,000000096858;"L";1;0;NA;"L";"red";"black";"parity";8;0;0;1;0;0
"545";"NW8";"BRAC1_vertAA_1st300";1;21;1966,51499997824;"A";1;0;NA;"A";"red";"black";"magnit";9;0;1;1;0;0
"549";"NW8";"BRAC1_vertAA_1st300";1;22;636,640000040643;"L";1;0;NA;"L";"red";"black";"magnit";2;0;0;1;0;0
"553";"NW8";"BRAC1_vertAA_1st300";1;23;748,374999966472;"A";1;0;NA;"A";"red";"black";"magnit";6;0;0;1;0;0
"557";"NW8";"BRAC1_vertAA_1st300";1;24;1059,92999998853;"L";1;0;NA;"L";"red";"black";"magnit";4;0;0;1;0;0
"561";"NW8";"BRAC1_vertAA_1st300";1;25;2455,24999999907;"A";1;0;NA;"A";"blue";"black";"parity";3;0;1;1;1;0
"565";"NW8";"BRAC1_vertAA_1st300";1;26;1093,11000001617;"A";1;0;NA;"A";"red";"black";"magnit";8;0;1;0;1;0
"569";"NW8";"BRAC1_vertAA_1st300";1;27;1139,7949999664;"L";1;0;NA;"L";"red";"black";"parity";2;0;1;1;0;0
"573";"NW8";"BRAC1_vertAA_1st300";1;28;1181,09500000719;"L";1;0;NA;"L";"red";"black";"parity";6;0;0;0;0;0
"577";"NW8";"BRAC1_vertAA_1st300";1;29;1811,08000001404;"L";1;0;NA;"L";"blue";"black";"magnit";2;0;1;0;1;0
"581";"NW8";"BRAC1_vertAA_1st300";1;30;2432,81000002753;"L";1;0;NA;"L";"red";"black";"parity";8;0;1;0;1;0
"585";"NW8";"BRAC1_vertAA_1st300";1;31;1128,51499998942;"A";1;0;NA;"A";"red";"black";"parity";7;0;0;1;0;0
"589";"NW8";"BRAC1_vertAA_1st300";1;32;1790,15500005335;"L";1;0;NA;"L";"blue";"black";"magnit";3;0;1;1;1;0
"593";"NW8";"BRAC1_vertAA_1st300";1;33;2328,68999999482;"A";1;0;NA;"A";"blue";"black";"magnit";6;0;0;1;0;0
"597";"NW8";"BRAC1_vertAA_1st300";1;34;2201,24500000384;"A";1;0;NA;"A";"blue";"black";"parity";7;0;1;0;0;0
"601";"NW8";"BRAC1_vertAA_1st300";1;35;1147,5400000345;"A";1;0;NA;"A";"red";"black";"parity";3;0;0;0;1;0
"605";"NW8";"BRAC1_vertAA_1st300";1;36;1340,28999996372;"A";1;0;NA;"A";"red";"black";"parity";7;0;0;0;0;0
"609";"NW8";"BRAC1_vertAA_1st300";1;37;627,440000069328;"L";1;0;NA;"L";"blue";"black";"parity";2;0;0;1;1;0
"613";"NW8";"BRAC1_vertAA_1st300";1;38;1231,87000001781;"L";1;0;NA;"L";"red";"black";"magnit";1;0;1;0;1;0
"617";"NW8";"BRAC1_vertAA_1st300";1;39;1870,20500004292;"A";1;0;NA;"A";"blue";"black";"magnit";9;0;0;1;1;0
"621";"NW8";"BRAC1_vertAA_1st300";1;40;1014,02500004042;"L";1;0;NA;"L";"blue";"black";"magnit";2;0;0;1;0;0
"625";"NW8";"BRAC1_vertAA_1st300";1;41;936,559999943711;"L";1;0;NA;"L";"blue";"black";"parity";6;0;1;0;0;0
"629";"NW8";"BRAC1_vertAA_1st300";1;42;1482,16999997385;"L";1;0;NA;"L";"blue";"black";"parity";4;0;0;0;0;0
"633";"NW8";"BRAC1_vertAA_1st300";1;43;1284,02500005905;"A";1;0;NA;"A";"red";"black";"parity";9;0;0;1;1;0
"637";"NW8";"BRAC1_vertAA_1st300";1;44;1165,86000006646;"A";1;0;NA;"A";"red";"black";"parity";3;0;0;0;0;0
"641";"NW8";"BRAC1_vertAA_1st300";1;45;776,509999996051;"L";1;0;NA;"L";"blue";"black";"magnit";4;0;1;1;1;0
"645";"NW8";"BRAC1_vertAA_1st300";1;46;974,124999949709;"A";1;0;NA;"A";"blue";"black";"parity";7;0;1;1;0;0
"649";"NW8";"BRAC1_vertAA_1st300";1;47;1083,39000004344;"L";1;0;NA;"L";"red";"black";"parity";4;0;0;1;1;0
"653";"NW8";"BRAC1_vertAA_1st300";1;48;932,61000001803;"L";1;0;NA;"L";"blue";"black";"parity";6;0;0;0;1;0
"657";"NW8";"BRAC1_vertAA_1st300";1;49;1079,34499997646;"A";1;0;NA;"A";"blue";"black";"magnit";7;0;1;1;0;0
"661";"NW8";"BRAC1_vertAA_1st300";1;50;1012,16000004206;"A";1;0;NA;"A";"blue";"black";"magnit";9;0;0;0;0;0
"665";"NW8";"BRAC1_vertAA_1st300";1;51;1171,38000007253;"A";1;0;NA;"A";"blue";"black";"magnit";8;0;0;0;0;0
"669";"NW8";"BRAC1_vertAA_1st300";1;52;523,025000002235;"A";1;0;NA;"A";"blue";"black";"magnit";7;0;0;0;0;0
"673";"NW8";"BRAC1_vertAA_1st300";1;53;638,419999973848;"L";1;0;NA;"L";"red";"black";"magnit";3;0;0;1;1;0
"677";"NW8";"BRAC1_vertAA_1st300";1;54;1770,09000000544;"A";1;0;NA;"A";"red";"black";"parity";7;0;1;1;0;0
"681";"NW8";"BRAC1_vertAA_1st300";1;55;1803,53999999352;"A";1;0;NA;"A";"red";"black";"magnit";6;0;1;0;0;0
"685";"NW8";"BRAC1_vertAA_1st300";1;56;767,49999995809;"A";1;0;NA;"A";"red";"black";"magnit";9;0;0;0;0;0
"689";"NW8";"BRAC1_vertAA_1st300";1;57;664,224999956787;"A";1;0;NA;"A";"red";"black";"magnit";7;0;0;0;0;0
"693";"NW8";"BRAC1_vertAA_1st300";1;58;2476,17499995977;"A";1;0;NA;"A";"blue";"black";"parity";9;0;1;0;1;0
"697";"NW8";"BRAC1_vertAA_1st300";1;59;1185,31000008807;"L";1;0;NA;"L";"red";"black";"magnit";3;0;1;1;1;0
"701";"NW8";"BRAC1_vertAA_1st300";1;60;1713,47000007518;"A";1;0;NA;"A";"red";"black";"parity";9;0;1;1;0;0
"705";"NW8";"BRAC1_vertAA_1st300";1;61;1419,22999999952;"A";1;0;NA;"A";"red";"black";"magnit";8;0;1;0;0;0
"709";"NW8";"BRAC1_vertAA_1st300";1;62;1993,72500006575;"A";1;0;NA;"A";"blue";"black";"magnit";6;0;0;0;1;0
"713";"NW8";"BRAC1_vertAA_1st300";1;63;595,065000001341;"A";1;0;NA;"A";"red";"black";"magnit";7;0;0;0;1;0
"717";"NW8";"BRAC1_vertAA_1st300";1;64;492,740000016056;"L";1;0;NA;"L";"red";"black";"magnit";1;0;0;1;0;0
"721";"NW8";"BRAC1_vertAA_1st300";1;65;1341,72999998555;"L";1;0;NA;"L";"red";"black";"magnit";2;0;0;0;0;0
"725";"NW8";"BRAC1_vertAA_1st300";1;66;1393,41000001878;"A";1;0;NA;"A";"blue";"black";"magnit";8;0;0;1;1;0
"729";"NW8";"BRAC1_vertAA_1st300";1;67;1892,61500001885;"L";1;0;NA;"L";"blue";"black";"parity";2;0;1;1;0;0
"733";"NW8";"BRAC1_vertAA_1st300";1;68;768,395000020973;"L";1;0;NA;"L";"blue";"black";"magnit";3;0;1;0;0;0
"737";"NW8";"BRAC1_vertAA_1st300";1;69;748,355000047013;"L";1;0;NA;"L";"red";"black";"magnit";4;0;0;0;1;0
"741";"NW8";"BRAC1_vertAA_1st300";1;70;1514,98000009451;"A";1;0;NA;"A";"blue";"black";"parity";3;0;1;1;1;0
"745";"NW8";"BRAC1_vertAA_1st300";1;71;2500,97199999995;NA;NA;1;1;"L";"blue";"black";"magnit";1;0;1;1;0;0
"749";"NW8";"BRAC1_vertAA_1st300";1;72;1561,2849999452;"L";1;0;NA;"L";"blue";"black";"parity";4;0;1;0;0;1
"753";"NW8";"BRAC1_vertAA_1st300";1;73;1877,03999993391;"A";1;0;NA;"A";"red";"black";"magnit";6;0;1;1;1;0
"757";"NW8";"BRAC1_vertAA_1st300";1;74;854,614999960177;"A";1;0;NA;"A";"blue";"black";"magnit";7;0;0;0;1;0
"761";"NW8";"BRAC1_vertAA_1st300";1;75;802,320000017062;"L";1;0;NA;"L";"blue";"black";"parity";8;0;1;1;0;0
"765";"NW8";"BRAC1_vertAA_1st300";1;76;698,610000079498;"L";1;0;NA;"L";"blue";"black";"magnit";4;0;1;0;0;0
"769";"NW8";"BRAC1_vertAA_1st300";1;77;781,134999939241;"L";1;0;NA;"L";"blue";"black";"parity";8;0;1;0;0;0
"773";"NW8";"BRAC1_vertAA_1st300";1;78;742,425000062212;"L";1;0;NA;"L";"red";"black";"magnit";1;0;1;0;1;0
"777";"NW8";"BRAC1_vertAA_1st300";1;79;418,62500004936;"L";1;0;NA;"L";"red";"black";"magnit";2;0;0;0;0;0
"781";"NW8";"BRAC1_vertAA_1st300";1;80;778,475000057369;"L";1;0;NA;"L";"red";"black";"parity";6;0;1;0;0;0
"785";"NW8";"BRAC1_vertAA_1st300";1;81;1633,48000007682;"A";1;0;NA;"A";"blue";"black";"parity";1;0;0;1;1;0
"789";"NW8";"BRAC1_vertAA_1st300";1;82;1325,31999994535;"A";1;0;NA;"A";"red";"black";"magnit";8;0;1;0;1;0
"793";"NW8";"BRAC1_vertAA_1st300";1;83;1018,13500002027;"A";1;0;NA;"A";"blue";"black";"parity";7;0;1;0;1;0
"797";"NW8";"BRAC1_vertAA_1st300";1;84;1203,89999996405;"L";1;0;NA;"L";"blue";"black";"parity";6;0;0;1;0;0
"801";"NW8";"BRAC1_vertAA_1st300";1;85;774,699999950826;"L";1;0;NA;"L";"blue";"black";"magnit";1;0;1;0;0;0
"805";"NW8";"BRAC1_vertAA_1st300";1;86;1184,75999997463;"A";1;0;NA;"A";"blue";"black";"parity";9;0;1;1;0;0
"809";"NW8";"BRAC1_vertAA_1st300";1;87;873,770000063814;"A";1;0;NA;"A";"red";"black";"parity";1;0;0;0;1;0
"813";"NW8";"BRAC1_vertAA_1st300";1;88;1147,5400000345;"L";1;0;NA;"L";"blue";"black";"parity";8;0;0;1;1;0
"817";"NW8";"BRAC1_vertAA_1st300";1;89;1072,41500006057;"A";1;0;NA;"A";"red";"black";"parity";9;0;0;1;1;0
"821";"NW8";"BRAC1_vertAA_1st300";1;90;2008,6649999721;"A";1;0;NA;"A";"red";"black";"magnit";7;0;1;0;0;0
"825";"NW8";"BRAC1_vertAA_1st300";1;91;930,924999993294;"L";1;0;NA;"L";"red";"black";"parity";4;0;1;1;0;0
"829";"NW8";"BRAC1_vertAA_1st300";1;92;1008,20999999996;"L";1;0;NA;"L";"red";"black";"magnit";3;0;1;0;0;0
"833";"NW8";"BRAC1_vertAA_1st300";1;93;528,725000098348;"L";1;0;NA;"L";"blue";"black";"magnit";4;0;0;0;1;0
"837";"NW8";"BRAC1_vertAA_1st300";1;94;679,414999904111;"L";1;0;NA;"L";"red";"black";"parity";2;0;1;0;1;0
"841";"NW8";"BRAC1_vertAA_1st300";1;95;450,249999994412;"L";1;0;NA;"L";"blue";"black";"magnit";1;0;1;0;1;0
"846";"NW8";"BRAC1_vertAA_1st300";2;0;2251,85000000056;"L";1;0;NA;"L";"blue";"black";"parity";4;300;99;99;99;99
"850";"NW8";"BRAC1_vertAA_1st300";2;1;1123,96500003524;"A";1;0;NA;"A";"blue";"black";"magnit";9;300;1;1;0;0
"854";"NW8";"BRAC1_vertAA_1st300";2;2;503,729999996722;"L";1;0;NA;"L";"blue";"black";"magnit";4;300;0;1;0;0
"858";"NW8";"BRAC1_vertAA_1st300";2;3;1375,89000002481;"L";1;0;NA;"L";"red";"black";"parity";2;300;1;0;1;0
"862";"NW8";"BRAC1_vertAA_1st300";2;4;595,794999971986;"L";1;0;NA;"L";"red";"black";"magnit";1;300;1;0;0;0
"866";"NW8";"BRAC1_vertAA_1st300";2;5;770,66499995999;"A";1;0;NA;"A";"blue";"black";"magnit";6;300;0;1;1;0
"870";"NW8";"BRAC1_vertAA_1st300";2;6;937,15000001248;"A";1;0;NA;"A";"red";"black";"parity";9;300;1;0;1;0
"874";"NW8";"BRAC1_vertAA_1st300";2;7;876,90500007011;"A";1;0;NA;"A";"blue";"black";"magnit";8;300;1;0;1;0
"878";"NW8";"BRAC1_vertAA_1st300";2;8;984,709999989718;"A";1;0;NA;"A";"red";"black";"parity";7;300;1;0;1;0
"882";"NW8";"BRAC1_vertAA_1st300";2;9;709,37000005506;"A";1;0;NA;"A";"blue";"black";"parity";9;300;0;0;1;0
"886";"NW8";"BRAC1_vertAA_1st300";2;10;635,65000006929;"L";1;0;NA;"L";"red";"black";"magnit";1;300;1;1;1;0
"890";"NW8";"BRAC1_vertAA_1st300";2;11;912,46499994304;"L";1;0;NA;"L";"red";"black";"parity";8;300;1;0;0;0
"894";"NW8";"BRAC1_vertAA_1st300";2;12;565,145000000484;"L";1;0;NA;"L";"red";"black";"magnit";3;300;1;0;0;0
"898";"NW8";"BRAC1_vertAA_1st300";2;13;584,52999999281;"L";1;0;NA;"L";"blue";"black";"magnit";1;300;0;0;1;0
"902";"NW8";"BRAC1_vertAA_1st300";2;14;598,235000041313;"A";1;0;NA;"A";"red";"black";"magnit";9;300;0;1;1;0
"906";"NW8";"BRAC1_vertAA_1st300";2;15;987,104999949224;"A";1;0;NA;"A";"blue";"black";"parity";3;300;1;0;1;0
"910";"NW8";"BRAC1_vertAA_1st300";2;16;1114,36000000685;"L";1;0;NA;"L";"blue";"black";"parity";8;300;0;1;0;0
"914";"NW8";"BRAC1_vertAA_1st300";2;17;619,739999994636;"A";1;0;NA;"A";"blue";"black";"magnit";7;300;1;1;0;0
"918";"NW8";"BRAC1_vertAA_1st300";2;18;960,379999945872;"L";1;0;NA;"L";"red";"black";"parity";4;300;1;1;1;0
"922";"NW8";"BRAC1_vertAA_1st300";2;19;629,829999990761;"L";1;0;NA;"L";"blue";"black";"parity";8;300;0;0;1;0
"926";"NW8";"BRAC1_vertAA_1st300";2;20;811,434999923222;"L";1;0;NA;"L";"blue";"black";"parity";2;300;0;0;0;0
"930";"NW8";"BRAC1_vertAA_1st300";2;21;630,074999993667;"L";1;0;NA;"L";"red";"black";"parity";6;300;0;0;1;0
"934";"NW8";"BRAC1_vertAA_1st300";2;22;1207,01500005089;"L";1;0;NA;"L";"red";"black";"magnit";4;300;1;0;0;0
"938";"NW8";"BRAC1_vertAA_1st300";2;23;467,694999999367;"L";1;0;NA;"L";"blue";"black";"magnit";2;300;0;0;1;0
"942";"NW8";"BRAC1_vertAA_1st300";2;24;582,934999954887;"L";1;0;NA;"L";"red";"black";"magnit";4;300;0;0;1;0
"946";"NW8";"BRAC1_vertAA_1st300";2;25;910,290000028908;"L";1;0;NA;"L";"red";"black";"parity";6;300;1;0;0;0
"950";"NW8";"BRAC1_vertAA_1st300";2;26;788,809999939986;"L";1;0;NA;"L";"red";"black";"parity";8;300;0;0;0;0
"954";"NW8";"BRAC1_vertAA_1st300";2;27;520,850000088103;"L";1;0;NA;"L";"blue";"black";"parity";6;300;0;0;1;0
"958";"NW8";"BRAC1_vertAA_1st300";2;28;678,100000019185;"L";1;0;NA;"L";"red";"black";"parity";8;300;0;0;1;0
"962";"NW8";"BRAC1_vertAA_1st300";2;29;570,000000065193;"A";1;0;NA;"A";"red";"black";"parity";7;300;0;1;0;0
"966";"NW8";"BRAC1_vertAA_1st300";2;30;878,62000009045;"A";1;1;NA;"L";"red";"black";"magnit";2;300;1;1;0;0
"970";"NW8";"BRAC1_vertAA_1st300";2;31;1069,92000003811;"L";1;1;NA;"A";"blue";"black";"magnit";8;300;0;1;1;1
"974";"NW8";"BRAC1_vertAA_1st300";2;32;1097,02500002459;"A";1;0;NA;"A";"blue";"black";"parity";9;300;1;0;0;1
"978";"NW8";"BRAC1_vertAA_1st300";2;33;1313,43000009656;"A";1;0;NA;"A";"red";"black";"parity";3;300;0;0;1;0
"982";"NW8";"BRAC1_vertAA_1st300";2;34;797,764999908395;"L";1;1;NA;"A";"red";"black";"magnit";6;300;1;0;0;0
"986";"NW8";"BRAC1_vertAA_1st300";2;35;543,509999988601;"A";1;1;NA;"L";"blue";"black";"magnit";2;300;0;1;1;1
"990";"NW8";"BRAC1_vertAA_1st300";2;36;439,050000044517;"L";1;1;NA;"A";"red";"black";"magnit";8;300;0;1;1;1
"994";"NW8";"BRAC1_vertAA_1st300";2;37;1114,3850000808;"L";1;1;NA;"A";"red";"black";"magnit";9;300;0;0;0;1
"998";"NW8";"BRAC1_vertAA_1st300";2;38;583,964999997988;"L";1;1;NA;"A";"red";"black";"magnit";8;300;0;0;0;1
"1002";"NW8";"BRAC1_vertAA_1st300";2;39;1272,66499993857;"A";1;0;NA;"A";"blue";"black";"parity";3;300;1;0;1;1
"1006";"NW8";"BRAC1_vertAA_1st300";2;40;604,114999994636;"A";1;0;NA;"A";"red";"black";"parity";1;300;0;0;1;0
"1010";"NW8";"BRAC1_vertAA_1st300";2;41;647,134999977425;"A";1;1;NA;"L";"red";"black";"magnit";3;300;1;1;0;0
"1014";"NW8";"BRAC1_vertAA_1st300";2;42;786,375000025146;"L";1;0;NA;"L";"blue";"black";"parity";4;300;1;0;1;1
"1018";"NW8";"BRAC1_vertAA_1st300";2;43;988,024999969639;"L";1;1;NA;"A";"red";"black";"magnit";7;300;1;1;1;0
"1022";"NW8";"BRAC1_vertAA_1st300";2;44;2501,08899999992;NA;NA;1;1;"L";"blue";"black";"parity";4;300;1;1;1;1
"1026";"NW8";"BRAC1_vertAA_1st300";2;45;2500,91299999994;NA;NA;1;1;"A";"blue";"black";"magnit";9;300;1;1;0;1
"1030";"NW8";"BRAC1_vertAA_1st300";2;46;2066,69000000693;"L";1;0;NA;"L";"red";"black";"parity";6;300;1;1;1;1
"1034";"NW8";"BRAC1_vertAA_1st300";2;47;981,324999942444;"L";1;0;NA;"L";"blue";"black";"parity";8;300;0;0;1;0
"1038";"NW8";"BRAC1_vertAA_1st300";2;48;2501,11300000013;NA;NA;1;1;"L";"red";"black";"magnit";1;300;1;0;1;0
"1042";"NW8";"BRAC1_vertAA_1st300";2;49;2449,82500001788;"A";1;0;NA;"A";"blue";"black";"parity";7;300;1;1;1;1
"1046";"NW8";"BRAC1_vertAA_1st300";2;50;623,47500002943;"A";1;0;NA;"A";"red";"black";"parity";9;300;0;0;1;0
"1050";"NW8";"BRAC1_vertAA_1st300";2;51;1314,88499999978;"L";1;0;NA;"L";"blue";"black";"magnit";4;300;1;1;1;0
"1054";"NW8";"BRAC1_vertAA_1st300";2;52;1725,78999993857;"A";1;0;NA;"A";"red";"black";"parity";1;300;1;1;1;0
"1058";"NW8";"BRAC1_vertAA_1st300";2;53;564,76500001736;"A";1;0;NA;"A";"red";"black";"parity";3;300;0;0;0;0
"1062";"NW8";"BRAC1_vertAA_1st300";2;54;1663,01999997813;"L";1;0;NA;"L";"blue";"black";"magnit";1;300;1;1;1;0
"1066";"NW8";"BRAC1_vertAA_1st300";2;55;1296,71999998391;"A";1;0;NA;"A";"red";"black";"magnit";7;300;0;1;1;0
"1070";"NW8";"BRAC1_vertAA_1st300";2;56;924,380000098608;"L";1;0;NA;"L";"blue";"black";"magnit";1;300;0;1;1;0
"1074";"NW8";"BRAC1_vertAA_1st300";2;57;1528,07999996003;"A";1;0;NA;"A";"red";"black";"parity";3;300;1;1;1;0
"1078";"NW8";"BRAC1_vertAA_1st300";2;58;738,884999998845;"A";1;0;NA;"A";"blue";"black";"parity";1;300;0;0;1;0
"1082";"NW8";"BRAC1_vertAA_1st300";2;59;1169,05500006396;"A";1;0;NA;"A";"red";"black";"magnit";7;300;1;0;1;0
"1086";"NW8";"BRAC1_vertAA_1st300";2;60;1596,70000011101;"A";1;0;NA;"A";"blue";"black";"parity";9;300;1;0;1;0
"1090";"NW8";"BRAC1_vertAA_1st300";2;61;1509,04500007164;"L";1;1;NA;"A";"blue";"black";"parity";1;300;0;0;0;0
"1094";"NW8";"BRAC1_vertAA_1st300";2;62;1189,73500002176;"A";1;0;NA;"A";"red";"black";"parity";7;300;0;0;1;1
"1098";"NW8";"BRAC1_vertAA_1st300";2;63;1147,94499997515;"A";1;0;NA;"A";"blue";"black";"magnit";8;300;1;0;1;0
"1102";"NW8";"BRAC1_vertAA_1st300";2;64;546,745000057854;"A";1;0;NA;"A";"red";"black";"magnit";9;300;0;0;1;0
"1106";"NW8";"BRAC1_vertAA_1st300";2;65;881,715000024997;"L";1;0;NA;"L";"blue";"black";"magnit";3;300;0;1;1;0
"1110";"NW8";"BRAC1_vertAA_1st300";2;66;962,064999970607;"L";1;0;NA;"L";"red";"black";"parity";2;300;1;0;1;0
"1114";"NW8";"BRAC1_vertAA_1st300";2;67;1001,41999998596;"A";1;0;NA;"A";"blue";"black";"magnit";6;300;1;1;1;0
"1118";"NW8";"BRAC1_vertAA_1st300";2;68;933,515000040643;"L";1;0;NA;"L";"blue";"black";"parity";2;300;1;1;0;0
"1122";"NW8";"BRAC1_vertAA_1st300";2;69;1205,80999995582;"A";1;0;NA;"A";"blue";"black";"magnit";7;300;1;1;0;0
"1126";"NW8";"BRAC1_vertAA_1st300";2;70;1139,72499989904;"A";1;0;NA;"A";"blue";"black";"parity";1;300;1;0;0;0
"1130";"NW8";"BRAC1_vertAA_1st300";2;71;1001,29499996547;"A";1;0;NA;"A";"blue";"black";"magnit";9;300;1;0;0;0
"1134";"NW8";"BRAC1_vertAA_1st300";2;72;546,029999968596;"A";1;0;NA;"A";"blue";"black";"magnit";7;300;0;0;0;0
"1138";"NW8";"BRAC1_vertAA_1st300";2;73;1588,18500000052;"L";1;0;NA;"L";"red";"black";"parity";2;300;1;1;1;0
"1142";"NW8";"BRAC1_vertAA_1st300";2;74;674,409999977797;"L";1;0;NA;"L";"blue";"black";"parity";6;300;0;0;1;0
"1146";"NW8";"BRAC1_vertAA_1st300";2;75;754,694999894127;"A";1;0;NA;"A";"blue";"black";"parity";7;300;0;1;0;0
"1150";"NW8";"BRAC1_vertAA_1st300";2;76;642,510000034235;"L";1;0;NA;"L";"red";"black";"parity";4;300;0;1;1;0
"1154";"NW8";"BRAC1_vertAA_1st300";2;77;851,454999996349;"A";1;0;NA;"A";"red";"black";"magnit";6;300;1;1;0;0
"1158";"NW8";"BRAC1_vertAA_1st300";2;78;615,404999931343;"L";1;0;NA;"L";"red";"black";"magnit";2;300;0;1;0;0
"1162";"NW8";"BRAC1_vertAA_1st300";2;79;574,785000062548;"L";1;0;NA;"L";"red";"black";"magnit";3;300;0;0;0;0
"1166";"NW8";"BRAC1_vertAA_1st300";2;80;857,339999987744;"L";1;0;NA;"L";"red";"black";"parity";4;300;1;0;0;0
"1170";"NW8";"BRAC1_vertAA_1st300";2;81;811,800000024959;"A";1;0;NA;"A";"red";"black";"parity";9;300;0;1;0;0
"1174";"NW8";"BRAC1_vertAA_1st300";2;82;1464,65999993961;"L";1;1;NA;"A";"blue";"black";"parity";3;300;0;0;1;0
"1178";"NW8";"BRAC1_vertAA_1st300";2;83;723,074999987148;"A";1;0;NA;"A";"blue";"black";"parity";7;300;0;0;0;1
"1182";"NW8";"BRAC1_vertAA_1st300";2;84;1058,25499992352;"L";1;0;NA;"L";"blue";"black";"magnit";2;300;1;1;0;0
"1186";"NW8";"BRAC1_vertAA_1st300";2;85;601,815000060014;"A";1;0;NA;"A";"blue";"black";"magnit";6;300;0;1;0;0
"1190";"NW8";"BRAC1_vertAA_1st300";2;86;421,885000076145;"L";1;0;NA;"L";"blue";"black";"magnit";3;300;0;1;0;0
"1194";"NW8";"BRAC1_vertAA_1st300";2;87;646,614999976009;"A";1;0;NA;"A";"red";"black";"magnit";6;300;0;1;1;0
"1198";"NW8";"BRAC1_vertAA_1st300";2;88;617,805000045337;"L";1;0;NA;"L";"blue";"black";"magnit";4;300;0;1;1;0
"1202";"NW8";"BRAC1_vertAA_1st300";2;89;1977,79500007164;"A";1;0;NA;"A";"red";"black";"parity";1;300;1;1;1;0
"1206";"NW8";"BRAC1_vertAA_1st300";2;90;908,24999997858;"L";1;0;NA;"L";"red";"black";"magnit";4;300;1;1;0;0
"1210";"NW8";"BRAC1_vertAA_1st300";2;91;870,735000004061;"L";1;0;NA;"L";"blue";"black";"parity";6;300;1;0;1;0
"1214";"NW8";"BRAC1_vertAA_1st300";2;92;1650,49999998882;"L";1;0;NA;"L";"red";"black";"magnit";2;300;1;0;1;0
"1218";"NW8";"BRAC1_vertAA_1st300";2;93;502,235000021756;"L";1;0;NA;"L";"blue";"black";"magnit";3;300;0;0;1;0
"1222";"NW8";"BRAC1_vertAA_1st300";2;94;480,730000068434;"A";1;0;NA;"A";"red";"black";"magnit";8;300;0;1;1;0
"1226";"NW8";"BRAC1_vertAA_1st300";2;95;1606,67499992996;"L";1;0;NA;"L";"blue";"black";"parity";2;300;1;1;1;0
"1231";"NW8";"BRAC1_vertAA_1st300";3;0;1645,50500002224;"L";1;0;NA;"L";"blue";"black";"magnit";2;0;99;99;99;99
"1235";"NW8";"BRAC1_vertAA_1st300";3;1;474,359999992885;"A";1;0;NA;"A";"blue";"black";"magnit";8;0;0;1;0;0
"1239";"NW8";"BRAC1_vertAA_1st300";3;2;554,639999987558;"A";1;0;NA;"A";"blue";"black";"magnit";9;0;0;0;0;0
"1243";"NW8";"BRAC1_vertAA_1st300";3;3;592,769999988377;"L";1;0;NA;"L";"blue";"black";"magnit";1;0;0;1;0;0
"1247";"NW8";"BRAC1_vertAA_1st300";3;4;1136,4449999528;"A";1;0;NA;"A";"red";"black";"parity";9;0;1;1;1;0
"1251";"NW8";"BRAC1_vertAA_1st300";3;5;1903,72499998193;"A";1;0;NA;"A";"blue";"black";"parity";3;0;0;0;1;0
"1255";"NW8";"BRAC1_vertAA_1st300";3;6;597,194999922067;"A";1;0;NA;"A";"red";"black";"parity";9;0;0;0;1;0
"1259";"NW8";"BRAC1_vertAA_1st300";3;7;1048,38499997277;"A";1;0;NA;"A";"blue";"black";"magnit";8;0;1;0;1;0
"1263";"NW8";"BRAC1_vertAA_1st300";3;8;1078,57000001241;"L";1;0;NA;"L";"red";"black";"parity";6;0;1;1;1;0
"1267";"NW8";"BRAC1_vertAA_1st300";3;9;923,710000002757;"L";1;0;NA;"L";"blue";"black";"magnit";1;0;1;0;1;0
"1271";"NW8";"BRAC1_vertAA_1st300";3;10;938,704999978654;"L";1;0;NA;"L";"red";"black";"parity";2;0;1;0;1;0
"1275";"NW8";"BRAC1_vertAA_1st300";3;11;866,745000006631;"A";1;0;NA;"A";"blue";"black";"magnit";6;0;1;1;1;0
"1279";"NW8";"BRAC1_vertAA_1st300";3;12;1166,1900000181;"A";1;0;NA;"A";"red";"black";"parity";3;0;1;0;1;0
"1283";"NW8";"BRAC1_vertAA_1st300";3;13;990,499999956228;"L";1;0;NA;"L";"red";"black";"parity";4;0;0;1;0;0
"1287";"NW8";"BRAC1_vertAA_1st300";3;14;848,114999942482;"A";1;1;NA;"L";"blue";"black";"parity";6;0;0;0;1;0
"1291";"NW8";"BRAC1_vertAA_1st300";3;15;1606,97500000242;"A";1;0;NA;"A";"red";"black";"magnit";7;0;1;1;1;1
"1295";"NW8";"BRAC1_vertAA_1st300";3;16;1295,23499996867;"L";1;0;NA;"L";"blue";"black";"magnit";2;0;0;1;1;0
"1299";"NW8";"BRAC1_vertAA_1st300";3;17;828,375000040978;"L";1;0;NA;"L";"blue";"black";"magnit";1;0;0;0;0;0
"1303";"NW8";"BRAC1_vertAA_1st300";3;18;821,480000042357;"L";1;0;NA;"L";"blue";"black";"magnit";4;0;0;0;0;0
"1307";"NW8";"BRAC1_vertAA_1st300";3;19;500,345000065863;"L";1;1;NA;"A";"red";"black";"magnit";9;0;0;1;1;0
"1311";"NW8";"BRAC1_vertAA_1st300";3;20;926,48999998346;"L";1;0;NA;"L";"red";"black";"parity";8;0;1;1;0;1
"1315";"NW8";"BRAC1_vertAA_1st300";3;21;813,820000039414;"L";1;0;NA;"L";"red";"black";"magnit";3;0;1;0;0;0
"1319";"NW8";"BRAC1_vertAA_1st300";3;22;639,495000010356;"A";1;0;NA;"A";"blue";"black";"magnit";8;0;0;1;1;0
"1323";"NW8";"BRAC1_vertAA_1st300";3;23;925,595000036992;"L";1;0;NA;"L";"red";"black";"parity";4;0;1;1;1;0
"1327";"NW8";"BRAC1_vertAA_1st300";3;24;996,479999972507;"L";1;0;NA;"L";"red";"black";"magnit";1;0;1;0;0;0
"1331";"NW8";"BRAC1_vertAA_1st300";3;25;1623,58000001404;"A";1;0;NA;"A";"blue";"black";"parity";7;0;1;1;1;0
"1335";"NW8";"BRAC1_vertAA_1st300";3;26;549,460000009276;"L";1;0;NA;"L";"blue";"black";"magnit";3;0;1;1;0;0
"1339";"NW8";"BRAC1_vertAA_1st300";3;27;835,390000022016;"L";1;0;NA;"L";"blue";"black";"parity";4;0;1;0;0;0
"1343";"NW8";"BRAC1_vertAA_1st300";3;28;1513,12000001781;"L";1;0;NA;"L";"red";"black";"magnit";2;0;1;0;1;0
"1347";"NW8";"BRAC1_vertAA_1st300";3;29;1086,95000002626;"A";1;0;NA;"A";"red";"black";"parity";3;0;1;1;0;0
"1351";"NW8";"BRAC1_vertAA_1st300";3;30;835,330000030808;"L";1;0;NA;"L";"blue";"black";"magnit";4;0;1;1;1;0
"1355";"NW8";"BRAC1_vertAA_1st300";3;31;1824,0550000919;"A";1;0;NA;"A";"blue";"black";"parity";1;0;1;1;0;0
"1359";"NW8";"BRAC1_vertAA_1st300";3;32;1018,46000005025;"L";1;0;NA;"L";"blue";"black";"magnit";4;0;1;1;0;0
"1363";"NW8";"BRAC1_vertAA_1st300";3;33;1529,84500001185;"A";1;0;NA;"A";"blue";"black";"parity";1;0;1;1;0;0
"1367";"NW8";"BRAC1_vertAA_1st300";3;34;775,875000050291;"A";1;0;NA;"A";"red";"black";"magnit";7;0;1;0;1;0
"1371";"NW8";"BRAC1_vertAA_1st300";3;35;737,075000070035;"L";1;0;NA;"L";"blue";"black";"parity";4;0;1;1;1;0
"1375";"NW8";"BRAC1_vertAA_1st300";3;36;876,580000040121;"A";1;0;NA;"A";"red";"black";"magnit";6;0;1;1;1;0
"1379";"NW8";"BRAC1_vertAA_1st300";3;37;813,284999923781;"A";1;0;NA;"A";"blue";"black";"parity";7;0;1;0;1;0
"1383";"NW8";"BRAC1_vertAA_1st300";3;38;1206,57499996014;"L";1;0;NA;"L";"red";"black";"magnit";4;0;1;1;1;0
"1387";"NW8";"BRAC1_vertAA_1st300";3;39;1381,26500009093;"L";1;0;NA;"L";"red";"black";"parity";6;0;1;0;0;0
"1391";"NW8";"BRAC1_vertAA_1st300";3;40;1249,57500002347;"L";1;0;NA;"L";"red";"black";"magnit";1;0;1;0;0;0
"1395";"NW8";"BRAC1_vertAA_1st300";3;41;1292,42000007071;"A";1;0;NA;"A";"blue";"black";"parity";9;0;1;1;1;0
"1399";"NW8";"BRAC1_vertAA_1st300";3;42;912,200000020675;"L";1;0;NA;"L";"red";"black";"parity";8;0;0;1;1;0
"1403";"NW8";"BRAC1_vertAA_1st300";3;43;1196,68499997351;"A";1;1;NA;"L";"red";"black";"magnit";3;0;1;0;0;0
"1407";"NW8";"BRAC1_vertAA_1st300";3;44;2449,84999997541;"A";1;1;NA;"L";"red";"black";"parity";6;0;1;0;0;1
"1411";"NW8";"BRAC1_vertAA_1st300";3;45;483,345000073314;"L";1;0;NA;"L";"red";"black";"magnit";2;0;1;0;0;1
"1415";"NW8";"BRAC1_vertAA_1st300";3;46;603,950000018813;"A";1;0;NA;"A";"blue";"black";"magnit";6;0;0;1;1;0
"1419";"NW8";"BRAC1_vertAA_1st300";3;47;1292,90499992203;"L";1;0;NA;"L";"blue";"black";"parity";2;0;1;1;0;0
"1423";"NW8";"BRAC1_vertAA_1st300";3;48;1891,54500002041;"A";1;0;NA;"A";"red";"black";"parity";1;0;0;1;1;0
"1427";"NW8";"BRAC1_vertAA_1st300";3;49;801,949999993667;"A";1;0;NA;"A";"red";"black";"magnit";8;0;1;0;0;0
"1431";"NW8";"BRAC1_vertAA_1st300";3;50;704,529999988154;"L";1;0;NA;"L";"red";"black";"magnit";3;0;0;1;0;0
"1435";"NW8";"BRAC1_vertAA_1st300";3;51;1026,1200000532;"L";1;0;NA;"L";"red";"black";"magnit";4;0;0;0;0;0
"1439";"NW8";"BRAC1_vertAA_1st300";3;52;1024,74499994423;"L";1;0;NA;"L";"red";"black";"parity";2;0;1;0;0;0
"1443";"NW8";"BRAC1_vertAA_1st300";3;53;647,50500000082;"A";1;0;NA;"A";"blue";"black";"magnit";9;0;1;1;1;0
"1447";"NW8";"BRAC1_vertAA_1st300";3;54;838,94499996677;"L";1;0;NA;"L";"red";"black";"parity";4;0;1;1;1;0
"1451";"NW8";"BRAC1_vertAA_1st300";3;55;2228,97499997634;"A";1;0;NA;"A";"red";"black";"parity";7;0;0;1;0;0
"1455";"NW8";"BRAC1_vertAA_1st300";3;56;1440,62999996822;"A";1;0;NA;"A";"red";"black";"parity";1;0;0;0;0;0
"1459";"NW8";"BRAC1_vertAA_1st300";3;57;719,295000075363;"L";1;0;NA;"L";"red";"black";"parity";2;0;0;1;0;0
"1463";"NW8";"BRAC1_vertAA_1st300";3;58;813,169999979436;"A";1;0;NA;"A";"blue";"black";"parity";3;0;0;1;1;0
"1467";"NW8";"BRAC1_vertAA_1st300";3;59;793,685000040568;"A";1;0;NA;"A";"red";"black";"magnit";6;0;1;0;1;0
"1471";"NW8";"BRAC1_vertAA_1st300";3;60;1866,54499999713;"L";1;0;NA;"L";"blue";"black";"parity";8;0;1;1;1;0
"1475";"NW8";"BRAC1_vertAA_1st300";3;61;1389,88499995321;"A";1;0;NA;"A";"red";"black";"parity";1;0;0;1;1;0
"1479";"NW8";"BRAC1_vertAA_1st300";3;62;1208,85999989696;"L";1;0;NA;"L";"blue";"black";"parity";6;0;0;1;1;0
"1483";"NW8";"BRAC1_vertAA_1st300";3;63;630,950000020675;"L";1;0;NA;"L";"blue";"black";"magnit";3;0;1;0;0;0
"1487";"NW8";"BRAC1_vertAA_1st300";3;64;467,535000061616;"A";1;0;NA;"A";"red";"black";"magnit";7;0;0;1;1;0
"1491";"NW8";"BRAC1_vertAA_1st300";3;65;605,139999999665;"A";1;0;NA;"A";"red";"black";"magnit";8;0;0;0;0;0
"1495";"NW8";"BRAC1_vertAA_1st300";3;66;442,064999951981;"L";1;0;NA;"L";"blue";"black";"magnit";2;0;0;1;1;0
"1499";"NW8";"BRAC1_vertAA_1st300";3;67;1734,72499998752;"A";1;0;NA;"A";"blue";"black";"magnit";6;0;0;1;0;0
"1503";"NW8";"BRAC1_vertAA_1st300";3;68;822,329999995418;"A";1;0;NA;"A";"blue";"black";"magnit";7;0;0;0;0;0
"1507";"NW8";"BRAC1_vertAA_1st300";3;69;2087,12000004016;"L";1;0;NA;"L";"red";"black";"magnit";2;0;0;1;1;0
"1511";"NW8";"BRAC1_vertAA_1st300";3;70;673,620000015944;"L";1;0;NA;"L";"red";"black";"magnit";4;0;0;0;0;0
"1515";"NW8";"BRAC1_vertAA_1st300";3;71;1772,9850000469;"L";1;0;NA;"L";"blue";"black";"parity";6;0;1;0;1;0
"1519";"NW8";"BRAC1_vertAA_1st300";3;72;2190,94000000041;"A";1;0;NA;"A";"blue";"black";"parity";1;0;0;1;0;0
"1523";"NW8";"BRAC1_vertAA_1st300";3;73;830,264999996871;"L";1;0;NA;"L";"blue";"black";"parity";2;0;0;1;0;0
"1527";"NW8";"BRAC1_vertAA_1st300";3;74;1021,77500003017;"A";1;0;NA;"A";"red";"black";"parity";3;0;0;1;1;0
"1531";"NW8";"BRAC1_vertAA_1st300";3;75;1214,26499995869;"A";1;0;NA;"A";"blue";"black";"parity";9;0;0;0;1;0
"1535";"NW8";"BRAC1_vertAA_1st300";3;76;1151,06499998365;"A";1;0;NA;"A";"blue";"black";"parity";7;0;0;0;0;0
"1539";"NW8";"BRAC1_vertAA_1st300";3;77;1636,27999997698;"L";1;0;NA;"L";"blue";"black";"parity";8;0;0;1;0;0
"1543";"NW8";"BRAC1_vertAA_1st300";3;78;897,839999990538;"A";1;0;NA;"A";"blue";"black";"magnit";7;0;1;1;0;0
"1547";"NW8";"BRAC1_vertAA_1st300";3;79;1265,00000001397;"A";1;0;NA;"A";"red";"black";"magnit";6;0;0;0;1;0
"1551";"NW8";"BRAC1_vertAA_1st300";3;80;1221,17999999318;"A";1;0;NA;"A";"red";"black";"parity";9;0;1;0;0;0
"1555";"NW8";"BRAC1_vertAA_1st300";3;81;1375,56499999482;"L";1;0;NA;"L";"red";"black";"magnit";1;0;1;1;0;0
"1559";"NW8";"BRAC1_vertAA_1st300";3;82;1633,60499998089;"A";1;0;NA;"A";"red";"black";"magnit";9;0;0;1;0;0
"1563";"NW8";"BRAC1_vertAA_1st300";3;83;1283,54500001296;"A";1;0;NA;"A";"blue";"black";"magnit";7;0;0;0;1;0
"1567";"NW8";"BRAC1_vertAA_1st300";3;84;1748,38500004262;"A";1;0;NA;"A";"red";"black";"magnit";8;0;0;0;1;0
"1571";"NW8";"BRAC1_vertAA_1st300";3;85;2437,97000008635;"A";1;0;NA;"A";"blue";"black";"parity";9;0;1;0;1;0
"1575";"NW8";"BRAC1_vertAA_1st300";3;86;772,675000014715;"L";1;0;NA;"L";"blue";"black";"parity";8;0;0;1;0;0
"1579";"NW8";"BRAC1_vertAA_1st300";3;87;419,050000025891;"A";1;0;NA;"A";"blue";"black";"magnit";9;0;1;1;0;0
"1583";"NW8";"BRAC1_vertAA_1st300";3;88;571,129999938421;"L";1;0;NA;"L";"blue";"black";"magnit";3;0;0;1;0;0
"1587";"NW8";"BRAC1_vertAA_1st300";3;89;878,600000054576;"A";1;0;NA;"A";"red";"black";"magnit";9;0;0;1;1;0
"1591";"NW8";"BRAC1_vertAA_1st300";3;90;1157,75500005111;"L";1;0;NA;"L";"blue";"black";"parity";4;0;1;1;1;0
"1595";"NW8";"BRAC1_vertAA_1st300";3;91;2144,97999998275;"L";1;0;NA;"L";"red";"black";"parity";8;0;0;0;1;0
"1599";"NW8";"BRAC1_vertAA_1st300";3;92;605,57500005234;"A";1;0;NA;"A";"red";"black";"parity";7;0;0;1;0;0
"1603";"NW8";"BRAC1_vertAA_1st300";3;93;731,925000087358;"L";1;0;NA;"L";"blue";"black";"parity";2;0;0;1;1;0
"1607";"NW8";"BRAC1_vertAA_1st300";3;94;753,339999937452;"A";1;0;NA;"A";"red";"black";"parity";7;0;0;1;1;0
"1611";"NW8";"BRAC1_vertAA_1st300";3;95;1874,1849999642;"A";1;0;NA;"A";"blue";"black";"parity";3;0;0;0;1;0
"3373";"NE3";"BRAC1_horiLA_1st0";0;0;1823;"L";1;0;NA;"L";"red";"black";"magnit";1;300;99;99;99;99
"3377";"NE3";"BRAC1_horiLA_1st0";0;1;973;"A";1;0;NA;"A";"red";"black";"magnit";7;300;0;1;0;0
"3381";"NE3";"BRAC1_horiLA_1st0";0;2;559;"L";1;0;NA;"L";"red";"black";"magnit";1;300;0;1;0;0
"3385";"NE3";"BRAC1_horiLA_1st0";0;3;1635;"A";1;0;NA;"A";"blue";"black";"magnit";7;300;0;1;1;0
"3389";"NE3";"BRAC1_horiLA_1st0";0;4;2489;"L";1;0;NA;"L";"red";"black";"parity";8;300;1;1;1;0
"3393";"NE3";"BRAC1_horiLA_1st0";0;5;1599,00000000003;"L";1;0;NA;"L";"blue";"black";"magnit";2;300;1;0;1;0
"3397";"NE3";"BRAC1_horiLA_1st0";0;6;1471;"A";1;0;NA;"A";"red";"black";"parity";7;300;1;1;1;0
"3401";"NE3";"BRAC1_horiLA_1st0";0;7;1830;"A";1;0;NA;"A";"red";"black";"parity";9;300;0;0;0;0
"3405";"NE3";"BRAC1_horiLA_1st0";0;8;808;"L";1;0;NA;"L";"blue";"black";"magnit";4;300;1;1;1;0
"3409";"NE3";"BRAC1_horiLA_1st0";0;9;1498,99999999997;"A";1;0;NA;"A";"blue";"black";"magnit";7;300;0;1;0;0
"3413";"NE3";"BRAC1_horiLA_1st0";0;10;2348;"L";1;0;NA;"L";"blue";"black";"parity";4;300;1;1;0;0
"3417";"NE3";"BRAC1_horiLA_1st0";0;11;2077;"A";1;0;NA;"A";"blue";"black";"parity";1;300;0;1;0;0
"3421";"NE3";"BRAC1_horiLA_1st0";0;12;984;"A";1;0;NA;"A";"blue";"black";"magnit";8;300;1;0;0;0
"3425";"NE3";"BRAC1_horiLA_1st0";0;13;2500;NA;NA;1;1;"A";"red";"black";"parity";9;300;1;0;1;0
"3429";"NE3";"BRAC1_horiLA_1st0";0;14;1707;"A";1;0;NA;"A";"blue";"black";"parity";3;300;0;0;1;1
"3433";"NE3";"BRAC1_horiLA_1st0";0;15;663;"L";1;0;NA;"L";"blue";"black";"magnit";1;300;1;1;0;0
"3437";"NE3";"BRAC1_horiLA_1st0";0;16;1166;"A";1;0;NA;"A";"red";"black";"magnit";9;300;0;1;1;0
"3441";"NE3";"BRAC1_horiLA_1st0";0;17;1256;"L";1;0;NA;"L";"blue";"black";"parity";2;300;1;1;1;0
"3445";"NE3";"BRAC1_horiLA_1st0";0;18;918;"A";1;0;NA;"A";"blue";"black";"parity";1;300;0;1;0;0
"3449";"NE3";"BRAC1_horiLA_1st0";0;19;799;"A";1;0;NA;"A";"blue";"black";"magnit";8;300;1;0;0;0
"3453";"NE3";"BRAC1_horiLA_1st0";0;20;548;"L";1;1;NA;"A";"blue";"black";"parity";1;300;1;0;0;0
"3457";"NE3";"BRAC1_horiLA_1st0";0;21;1528;"L";1;0;NA;"L";"blue";"black";"magnit";3;300;1;1;0;1
"3461";"NE3";"BRAC1_horiLA_1st0";0;22;1747;"L";1;0;NA;"L";"blue";"black";"parity";6;300;1;0;0;0
"3465";"NE3";"BRAC1_horiLA_1st0";0;23;1270,99999999994;"A";1;0;NA;"A";"red";"black";"magnit";9;300;1;1;1;0
"3469";"NE3";"BRAC1_horiLA_1st0";0;24;1832;"L";1;1;NA;"A";"red";"black";"parity";1;300;1;0;0;0
"3473";"NE3";"BRAC1_horiLA_1st0";0;25;1435;"L";1;0;NA;"L";"red";"black";"parity";4;300;0;1;0;1
"3477";"NE3";"BRAC1_horiLA_1st0";0;26;1413;"A";1;0;NA;"A";"red";"black";"magnit";6;300;1;1;0;0
"3481";"NE3";"BRAC1_horiLA_1st0";0;27;1293;"A";1;0;NA;"A";"red";"black";"parity";9;300;1;0;0;0
"3485";"NE3";"BRAC1_horiLA_1st0";0;28;1103;"L";1;0;NA;"L";"blue";"black";"magnit";1;300;1;1;1;0
"3489";"NE3";"BRAC1_horiLA_1st0";0;29;989,999999999942;"L";1;0;NA;"L";"red";"black";"parity";2;300;1;0;1;0
"3493";"NE3";"BRAC1_horiLA_1st0";0;30;642,999999999942;"L";1;0;NA;"L";"blue";"black";"magnit";3;300;1;0;1;0
"3497";"NE3";"BRAC1_horiLA_1st0";0;31;1326,00000000006;"L";1;0;NA;"L";"blue";"black";"parity";2;300;1;0;0;0
"3501";"NE3";"BRAC1_horiLA_1st0";0;32;1344;"A";1;0;NA;"A";"blue";"black";"parity";7;300;0;1;0;0
"3505";"NE3";"BRAC1_horiLA_1st0";0;33;689;"L";1;0;NA;"L";"red";"black";"parity";4;300;0;1;1;0
"3509";"NE3";"BRAC1_horiLA_1st0";0;34;1110;"L";1;0;NA;"L";"red";"black";"magnit";2;300;1;0;0;0
"3513";"NE3";"BRAC1_horiLA_1st0";0;35;704,000000000058;"A";1;0;NA;"A";"blue";"black";"magnit";6;300;0;1;1;0
"3517";"NE3";"BRAC1_horiLA_1st0";0;36;813;"A";1;0;NA;"A";"blue";"black";"parity";7;300;1;0;0;0
"3521";"NE3";"BRAC1_horiLA_1st0";0;37;2173;"A";1;0;NA;"A";"red";"black";"magnit";6;300;1;0;1;0
"3525";"NE3";"BRAC1_horiLA_1st0";0;38;713;"A";1;0;NA;"A";"red";"black";"magnit";8;300;0;0;0;0
"3529";"NE3";"BRAC1_horiLA_1st0";0;39;653;"A";1;0;NA;"A";"red";"black";"parity";7;300;1;0;0;0
"3533";"NE3";"BRAC1_horiLA_1st0";0;40;1117,00000000006;"L";1;1;NA;"A";"red";"black";"parity";3;300;0;0;0;0
"3537";"NE3";"BRAC1_horiLA_1st0";0;41;1293;"L";1;0;NA;"L";"blue";"black";"magnit";4;300;1;1;1;1
"3541";"NE3";"BRAC1_horiLA_1st0";0;42;966;"A";1;0;NA;"A";"red";"black";"magnit";8;300;0;1;1;0
"3545";"NE3";"BRAC1_horiLA_1st0";0;43;1841;"L";1;0;NA;"L";"blue";"black";"parity";4;300;1;1;1;0
"3549";"NE3";"BRAC1_horiLA_1st0";0;44;517;"L";1;0;NA;"L";"blue";"black";"magnit";1;300;1;0;0;0
"3553";"NE3";"BRAC1_horiLA_1st0";0;45;1412;"L";1;0;NA;"L";"red";"black";"magnit";4;300;0;0;1;0
"3557";"NE3";"BRAC1_horiLA_1st0";0;46;803;"A";1;0;NA;"A";"red";"black";"magnit";9;300;0;1;0;0
"3561";"NE3";"BRAC1_horiLA_1st0";0;47;497,999999999942;"L";1;0;NA;"L";"blue";"black";"magnit";2;300;0;1;1;0
"3565";"NE3";"BRAC1_horiLA_1st0";0;48;994,999999999942;"L";1;0;NA;"L";"blue";"black";"parity";6;300;1;0;0;0
"3569";"NE3";"BRAC1_horiLA_1st0";0;49;1928;"L";1;0;NA;"L";"red";"black";"parity";4;300;0;0;1;0
"3573";"NE3";"BRAC1_horiLA_1st0";0;50;674;"A";1;0;NA;"A";"blue";"black";"magnit";6;300;1;1;1;0
"3577";"NE3";"BRAC1_horiLA_1st0";0;51;721;"A";1;0;NA;"A";"blue";"black";"magnit";9;300;0;0;0;0
"3581";"NE3";"BRAC1_horiLA_1st0";0;52;1475;"A";1;0;NA;"A";"red";"black";"magnit";7;300;0;0;1;0
"3585";"NE3";"BRAC1_horiLA_1st0";0;53;506;"L";1;0;NA;"L";"red";"black";"magnit";2;300;0;1;0;0
"3589";"NE3";"BRAC1_horiLA_1st0";0;54;1150;"L";1;0;NA;"L";"red";"black";"magnit";3;300;0;0;0;0
"3593";"NE3";"BRAC1_horiLA_1st0";0;55;519;"A";1;0;NA;"A";"red";"black";"magnit";7;300;0;1;0;0
"3597";"NE3";"BRAC1_horiLA_1st0";0;56;1377;"L";1;0;NA;"L";"blue";"black";"parity";8;300;1;1;1;0
"3601";"NE3";"BRAC1_horiLA_1st0";0;57;510;"L";1;0;NA;"L";"blue";"black";"parity";4;300;0;0;0;0
"3605";"NE3";"BRAC1_horiLA_1st0";0;58;619;"L";1;0;NA;"L";"red";"black";"magnit";3;300;1;0;1;0
"3609";"NE3";"BRAC1_horiLA_1st0";0;59;941;"A";1;0;NA;"A";"red";"black";"parity";1;300;1;1;0;0
"3613";"NE3";"BRAC1_horiLA_1st0";0;60;799,999999999942;"L";1;0;NA;"L";"red";"black";"parity";6;300;0;1;0;0
"3617";"NE3";"BRAC1_horiLA_1st0";0;61;534;"L";1;0;NA;"L";"blue";"black";"parity";2;300;0;0;1;0
"3621";"NE3";"BRAC1_horiLA_1st0";0;62;1426;"A";1;0;NA;"A";"blue";"black";"parity";3;300;0;1;0;0
"3625";"NE3";"BRAC1_horiLA_1st0";0;63;567;"L";1;0;NA;"L";"blue";"black";"magnit";2;300;1;1;0;0
"3629";"NE3";"BRAC1_horiLA_1st0";0;64;1084;"L";1;0;NA;"L";"red";"black";"magnit";3;300;0;0;1;0
"3633";"NE3";"BRAC1_horiLA_1st0";0;65;547;"A";1;0;NA;"A";"blue";"black";"magnit";9;300;0;1;1;0
"3637";"NE3";"BRAC1_horiLA_1st0";0;66;2014;"L";1;0;NA;"L";"red";"black";"magnit";4;300;0;1;1;0
"3641";"NE3";"BRAC1_horiLA_1st0";0;67;635;"L";1;0;NA;"L";"red";"black";"magnit";2;300;0;0;0;0
"3645";"NE3";"BRAC1_horiLA_1st0";0;68;869,000000000058;"L";1;0;NA;"L";"red";"black";"parity";6;300;1;0;0;0
"3649";"NE3";"BRAC1_horiLA_1st0";0;69;1683;"A";1;0;NA;"A";"blue";"black";"parity";9;300;0;1;1;0
"3653";"NE3";"BRAC1_horiLA_1st0";0;70;665;"L";1;0;NA;"L";"red";"black";"parity";2;300;0;1;1;0
"3657";"NE3";"BRAC1_horiLA_1st0";0;71;2122;"A";1;0;NA;"A";"red";"black";"parity";3;300;0;1;0;0
"3661";"NE3";"BRAC1_horiLA_1st0";0;72;884;"L";1;0;NA;"L";"blue";"black";"magnit";4;300;1;1;1;0
"3665";"NE3";"BRAC1_horiLA_1st0";0;73;1361;"L";1;0;NA;"L";"blue";"black";"parity";8;300;1;0;0;0
"3669";"NE3";"BRAC1_horiLA_1st0";0;74;609;"A";1;0;NA;"A";"blue";"black";"parity";7;300;0;1;0;0
"3673";"NE3";"BRAC1_horiLA_1st0";0;75;1167,00000000006;"L";1;0;NA;"L";"blue";"black";"magnit";3;300;1;1;0;0
"3677";"NE3";"BRAC1_horiLA_1st0";0;76;480;"L";1;0;NA;"L";"red";"black";"magnit";1;300;0;0;1;0
"3681";"NE3";"BRAC1_horiLA_1st0";0;77;1436;"A";1;0;NA;"A";"blue";"black";"parity";9;300;1;1;1;0
"3685";"NE3";"BRAC1_horiLA_1st0";0;78;932;"A";1;0;NA;"A";"blue";"black";"parity";3;300;0;0;0;0
"3689";"NE3";"BRAC1_horiLA_1st0";0;79;795;"A";1;0;NA;"A";"blue";"black";"magnit";9;300;1;0;0;0
"3693";"NE3";"BRAC1_horiLA_1st0";0;80;568;"A";1;0;NA;"A";"blue";"black";"magnit";8;300;0;0;0;0
"3697";"NE3";"BRAC1_horiLA_1st0";0;81;525,000000000058;"A";1;0;NA;"A";"red";"black";"magnit";6;300;0;0;1;0
"3701";"NE3";"BRAC1_horiLA_1st0";0;82;1248;"A";1;0;NA;"A";"red";"black";"parity";3;300;1;0;0;0
"3705";"NE3";"BRAC1_horiLA_1st0";0;83;1267;"A";1;0;NA;"A";"blue";"black";"magnit";6;300;1;0;1;0
"3709";"NE3";"BRAC1_horiLA_1st0";0;84;642;"A";1;0;NA;"A";"red";"black";"magnit";8;300;0;0;1;0
"3713";"NE3";"BRAC1_horiLA_1st0";0;85;1317;"L";1;0;NA;"L";"red";"black";"parity";2;300;1;1;0;0
"3717";"NE3";"BRAC1_horiLA_1st0";0;86;2480;"A";1;0;NA;"A";"red";"black";"parity";7;300;0;1;0;0
"3721";"NE3";"BRAC1_horiLA_1st0";0;87;1078;"A";1;0;NA;"A";"blue";"black";"parity";9;300;0;0;1;0
"3725";"NE3";"BRAC1_horiLA_1st0";0;88;870;"L";1;0;NA;"L";"red";"black";"parity";8;300;0;1;1;0
"3729";"NE3";"BRAC1_horiLA_1st0";0;89;837;"A";1;0;NA;"A";"red";"black";"parity";1;300;0;1;0;0
"3733";"NE3";"BRAC1_horiLA_1st0";0;90;548;"A";1;1;NA;"L";"blue";"black";"parity";8;300;0;1;1;0
"3737";"NE3";"BRAC1_horiLA_1st0";0;91;1059,99999999994;"A";1;0;NA;"A";"blue";"black";"magnit";7;300;1;1;0;1
"3741";"NE3";"BRAC1_horiLA_1st0";0;92;740,999999999942;"L";1;0;NA;"L";"red";"black";"parity";8;300;1;1;1;0
"3745";"NE3";"BRAC1_horiLA_1st0";0;93;807;"L";1;0;NA;"L";"blue";"black";"parity";6;300;0;0;1;0
"3749";"NE3";"BRAC1_horiLA_1st0";0;94;1353,00000000006;"L";1;0;NA;"L";"red";"black";"magnit";4;300;1;0;1;0
"3753";"NE3";"BRAC1_horiLA_1st0";0;95;1223;"L";1;0;NA;"L";"red";"black";"parity";6;300;1;0;0;0
"3758";"NE3";"BRAC1_horiLA_1st0";1;0;2500;NA;NA;1;1;"L";"blue";"black";"magnit";2;0;99;99;99;99
"3762";"NE3";"BRAC1_horiLA_1st0";1;1;1872;"A";1;0;NA;"A";"blue";"black";"parity";9;0;1;1;0;1
"3766";"NE3";"BRAC1_horiLA_1st0";1;2;766;"L";1;0;NA;"L";"blue";"black";"magnit";3;0;1;1;0;0
"3770";"NE3";"BRAC1_horiLA_1st0";1;3;905,000000000116;"L";1;0;NA;"L";"red";"black";"parity";4;0;1;0;1;0
"3774";"NE3";"BRAC1_horiLA_1st0";1;4;694,999999999884;"A";1;0;NA;"A";"blue";"black";"parity";1;0;0;1;1;0
"3778";"NE3";"BRAC1_horiLA_1st0";1;5;2500;NA;NA;1;1;"L";"red";"black";"parity";6;0;0;1;1;0
"3782";"NE3";"BRAC1_horiLA_1st0";1;6;2064;"A";1;0;NA;"A";"red";"black";"parity";3;0;0;1;0;1
"3786";"NE3";"BRAC1_horiLA_1st0";1;7;617;"A";1;0;NA;"A";"red";"black";"magnit";9;0;1;0;0;0
"3790";"NE3";"BRAC1_horiLA_1st0";1;8;1756;"A";1;0;NA;"A";"blue";"black";"parity";3;0;1;0;1;0
"3794";"NE3";"BRAC1_horiLA_1st0";1;9;678;"A";1;0;NA;"A";"red";"black";"parity";1;0;0;0;1;0
"3798";"NE3";"BRAC1_horiLA_1st0";1;10;1705;"L";1;0;NA;"L";"red";"black";"magnit";4;0;1;1;0;0
"3802";"NE3";"BRAC1_horiLA_1st0";1;11;961;"A";1;0;NA;"A";"blue";"black";"magnit";8;0;0;1;1;0
"3806";"NE3";"BRAC1_horiLA_1st0";1;12;1188,00000000012;"A";1;0;NA;"A";"blue";"black";"magnit";6;0;0;0;0;0
"3810";"NE3";"BRAC1_horiLA_1st0";1;13;1138;"A";1;0;NA;"A";"blue";"black";"parity";1;0;1;0;0;0
"3814";"NE3";"BRAC1_horiLA_1st0";1;14;1178,99999999988;"L";1;0;NA;"L";"blue";"black";"parity";4;0;0;1;0;0
"3818";"NE3";"BRAC1_horiLA_1st0";1;15;1349;"L";1;0;NA;"L";"blue";"black";"parity";2;0;0;0;0;0
"3822";"NE3";"BRAC1_horiLA_1st0";1;16;1479;"A";1;0;NA;"A";"blue";"black";"magnit";9;0;1;1;0;0
"3826";"NE3";"BRAC1_horiLA_1st0";1;17;707;"L";1;0;NA;"L";"red";"black";"parity";2;0;1;1;1;0
"3830";"NE3";"BRAC1_horiLA_1st0";1;18;1238;"L";1;0;NA;"L";"red";"black";"parity";8;0;0;0;0;0
"3834";"NE3";"BRAC1_horiLA_1st0";1;19;652;"A";1;0;NA;"A";"red";"black";"parity";1;0;0;1;0;0
"3838";"NE3";"BRAC1_horiLA_1st0";1;20;885;"L";1;0;NA;"L";"red";"black";"parity";8;0;0;1;0;0
"3842";"NE3";"BRAC1_horiLA_1st0";1;21;1099;"A";1;0;NA;"A";"red";"black";"magnit";9;0;1;1;0;0
"3846";"NE3";"BRAC1_horiLA_1st0";1;22;1729,99999999988;"L";1;0;NA;"L";"red";"black";"magnit";2;0;0;1;0;0
"3850";"NE3";"BRAC1_horiLA_1st0";1;23;698;"A";1;0;NA;"A";"red";"black";"magnit";6;0;0;1;0;0
"3854";"NE3";"BRAC1_horiLA_1st0";1;24;643,000000000116;"L";1;0;NA;"L";"red";"black";"magnit";4;0;0;1;0;0
"3858";"NE3";"BRAC1_horiLA_1st0";1;25;1186;"A";1;0;NA;"A";"blue";"black";"parity";3;0;1;1;1;0
"3862";"NE3";"BRAC1_horiLA_1st0";1;26;1171;"A";1;0;NA;"A";"red";"black";"magnit";8;0;1;0;1;0
"3866";"NE3";"BRAC1_horiLA_1st0";1;27;1212;"L";1;0;NA;"L";"red";"black";"parity";2;0;1;1;0;0
"3870";"NE3";"BRAC1_horiLA_1st0";1;28;553;"L";1;0;NA;"L";"red";"black";"parity";6;0;0;0;0;0
"3874";"NE3";"BRAC1_horiLA_1st0";1;29;809,999999999884;"L";1;0;NA;"L";"blue";"black";"magnit";2;0;1;0;1;0
"3878";"NE3";"BRAC1_horiLA_1st0";1;30;2081;"L";1;0;NA;"L";"red";"black";"parity";8;0;1;0;1;0
"3882";"NE3";"BRAC1_horiLA_1st0";1;31;928;"A";1;0;NA;"A";"red";"black";"parity";7;0;0;1;0;0
"3886";"NE3";"BRAC1_horiLA_1st0";1;32;1315,00000000012;"L";1;0;NA;"L";"blue";"black";"magnit";3;0;1;1;1;0
"3890";"NE3";"BRAC1_horiLA_1st0";1;33;653;"A";1;0;NA;"A";"blue";"black";"magnit";6;0;0;1;0;0
"3894";"NE3";"BRAC1_horiLA_1st0";1;34;677;"A";1;0;NA;"A";"blue";"black";"parity";7;0;1;0;0;0
"3898";"NE3";"BRAC1_horiLA_1st0";1;35;1930;"A";1;0;NA;"A";"red";"black";"parity";3;0;0;0;1;0
"3902";"NE3";"BRAC1_horiLA_1st0";1;36;539,999999999884;"A";1;0;NA;"A";"red";"black";"parity";7;0;0;0;0;0
"3906";"NE3";"BRAC1_horiLA_1st0";1;37;590;"L";1;0;NA;"L";"blue";"black";"parity";2;0;0;1;1;0
"3910";"NE3";"BRAC1_horiLA_1st0";1;38;1247;"L";1;0;NA;"L";"red";"black";"magnit";1;0;1;0;1;0
"3914";"NE3";"BRAC1_horiLA_1st0";1;39;974;"A";1;0;NA;"A";"blue";"black";"magnit";9;0;0;1;1;0
"3918";"NE3";"BRAC1_horiLA_1st0";1;40;2005;"L";1;0;NA;"L";"blue";"black";"magnit";2;0;0;1;0;0
"3922";"NE3";"BRAC1_horiLA_1st0";1;41;2358,99999999988;"A";1;1;NA;"L";"blue";"black";"parity";6;0;1;0;0;0
"3926";"NE3";"BRAC1_horiLA_1st0";1;42;1626;"L";1;0;NA;"L";"blue";"black";"parity";4;0;0;0;0;1
"3930";"NE3";"BRAC1_horiLA_1st0";1;43;1106;"A";1;0;NA;"A";"red";"black";"parity";9;0;0;1;1;0
"3934";"NE3";"BRAC1_horiLA_1st0";1;44;743;"A";1;0;NA;"A";"red";"black";"parity";3;0;0;0;0;0
"3938";"NE3";"BRAC1_horiLA_1st0";1;45;942;"L";1;0;NA;"L";"blue";"black";"magnit";4;0;1;1;1;0
"3942";"NE3";"BRAC1_horiLA_1st0";1;46;885;"A";1;0;NA;"A";"blue";"black";"parity";7;0;1;1;0;0
"3946";"NE3";"BRAC1_horiLA_1st0";1;47;665;"L";1;0;NA;"L";"red";"black";"parity";4;0;0;1;1;0
"3950";"NE3";"BRAC1_horiLA_1st0";1;48;729,999999999884;"L";1;0;NA;"L";"blue";"black";"parity";6;0;0;0;1;0
"3954";"NE3";"BRAC1_horiLA_1st0";1;49;874;"A";1;0;NA;"A";"blue";"black";"magnit";7;0;1;1;0;0
"3958";"NE3";"BRAC1_horiLA_1st0";1;50;690;"A";1;0;NA;"A";"blue";"black";"magnit";9;0;0;0;0;0
"3962";"NE3";"BRAC1_horiLA_1st0";1;51;535;"A";1;0;NA;"A";"blue";"black";"magnit";8;0;0;0;0;0
"3966";"NE3";"BRAC1_horiLA_1st0";1;52;523;"A";1;0;NA;"A";"blue";"black";"magnit";7;0;0;0;0;0
"3970";"NE3";"BRAC1_horiLA_1st0";1;53;1625;"L";1;0;NA;"L";"red";"black";"magnit";3;0;0;1;1;0
"3974";"NE3";"BRAC1_horiLA_1st0";1;54;837,000000000116;"A";1;0;NA;"A";"red";"black";"parity";7;0;1;1;0;0
"3978";"NE3";"BRAC1_horiLA_1st0";1;55;1172;"L";1;1;NA;"A";"red";"black";"magnit";6;0;1;0;0;0
"3982";"NE3";"BRAC1_horiLA_1st0";1;56;1061;"A";1;0;NA;"A";"red";"black";"magnit";9;0;0;0;0;1
"3986";"NE3";"BRAC1_horiLA_1st0";1;57;1225,00000000012;"A";1;0;NA;"A";"red";"black";"magnit";7;0;0;0;0;0
"3990";"NE3";"BRAC1_horiLA_1st0";1;58;619,000000000116;"A";1;0;NA;"A";"blue";"black";"parity";9;0;1;0;1;0
"3994";"NE3";"BRAC1_horiLA_1st0";1;59;958;"A";1;1;NA;"L";"red";"black";"magnit";3;0;1;1;1;0
"3998";"NE3";"BRAC1_horiLA_1st0";1;60;1160,00000000012;"A";1;0;NA;"A";"red";"black";"parity";9;0;1;1;0;1
"4002";"NE3";"BRAC1_horiLA_1st0";1;61;792;"A";1;0;NA;"A";"red";"black";"magnit";8;0;1;0;0;0
"4006";"NE3";"BRAC1_horiLA_1st0";1;62;1719;"L";1;1;NA;"A";"blue";"black";"magnit";6;0;0;0;1;0
"4010";"NE3";"BRAC1_horiLA_1st0";1;63;1272;"A";1;0;NA;"A";"red";"black";"magnit";7;0;0;0;1;1
"4014";"NE3";"BRAC1_horiLA_1st0";1;64;1294;"A";1;1;NA;"L";"red";"black";"magnit";1;0;0;1;0;0
"4018";"NE3";"BRAC1_horiLA_1st0";1;65;1575,99999999988;"L";1;0;NA;"L";"red";"black";"magnit";2;0;0;0;0;1
"4022";"NE3";"BRAC1_horiLA_1st0";1;66;606;"A";1;0;NA;"A";"blue";"black";"magnit";8;0;0;1;1;0
"4026";"NE3";"BRAC1_horiLA_1st0";1;67;2026;"L";1;0;NA;"L";"blue";"black";"parity";2;0;1;1;0;0
"4030";"NE3";"BRAC1_horiLA_1st0";1;68;1660;"L";1;0;NA;"L";"blue";"black";"magnit";3;0;1;0;0;0
"4034";"NE3";"BRAC1_horiLA_1st0";1;69;982,999999999884;"L";1;0;NA;"L";"red";"black";"magnit";4;0;0;0;1;0
"4038";"NE3";"BRAC1_horiLA_1st0";1;70;1172;"A";1;0;NA;"A";"blue";"black";"parity";3;0;1;1;1;0
"4042";"NE3";"BRAC1_horiLA_1st0";1;71;1235;"L";1;0;NA;"L";"blue";"black";"magnit";1;0;1;1;0;0
"4046";"NE3";"BRAC1_horiLA_1st0";1;72;1770,99999999988;"L";1;0;NA;"L";"blue";"black";"parity";4;0;1;0;0;0
"4050";"NE3";"BRAC1_horiLA_1st0";1;73;1678;"L";1;1;NA;"A";"red";"black";"magnit";6;0;1;1;1;0
"4054";"NE3";"BRAC1_horiLA_1st0";1;74;1658;"A";1;0;NA;"A";"blue";"black";"magnit";7;0;0;0;1;1
"4058";"NE3";"BRAC1_horiLA_1st0";1;75;1909;"L";1;0;NA;"L";"blue";"black";"parity";8;0;1;1;0;0
"4062";"NE3";"BRAC1_horiLA_1st0";1;76;1342,99999999988;"A";1;1;NA;"L";"blue";"black";"magnit";4;0;1;0;0;0
"4066";"NE3";"BRAC1_horiLA_1st0";1;77;1362,99999999988;"L";1;0;NA;"L";"blue";"black";"parity";8;0;1;0;0;1
"4070";"NE3";"BRAC1_horiLA_1st0";1;78;1561;"L";1;0;NA;"L";"red";"black";"magnit";1;0;1;0;1;0
"4074";"NE3";"BRAC1_horiLA_1st0";1;79;872;"L";1;0;NA;"L";"red";"black";"magnit";2;0;0;0;0;0
"4078";"NE3";"BRAC1_horiLA_1st0";1;80;1208;"L";1;0;NA;"L";"red";"black";"parity";6;0;1;0;0;0
"4082";"NE3";"BRAC1_horiLA_1st0";1;81;1035,00000000012;"A";1;0;NA;"A";"blue";"black";"parity";1;0;0;1;1;0
"4086";"NE3";"BRAC1_horiLA_1st0";1;82;726;"A";1;0;NA;"A";"red";"black";"magnit";8;0;1;0;1;0
"4090";"NE3";"BRAC1_horiLA_1st0";1;83;1324;"A";1;0;NA;"A";"blue";"black";"parity";7;0;1;0;1;0
"4094";"NE3";"BRAC1_horiLA_1st0";1;84;668;"L";1;0;NA;"L";"blue";"black";"parity";6;0;0;1;0;0
"4098";"NE3";"BRAC1_horiLA_1st0";1;85;648;"L";1;0;NA;"L";"blue";"black";"magnit";1;0;1;0;0;0
"4102";"NE3";"BRAC1_horiLA_1st0";1;86;1053;"A";1;0;NA;"A";"blue";"black";"parity";9;0;1;1;0;0
"4106";"NE3";"BRAC1_horiLA_1st0";1;87;1107;"A";1;0;NA;"A";"red";"black";"parity";1;0;0;0;1;0
"4110";"NE3";"BRAC1_horiLA_1st0";1;88;1578;"L";1;0;NA;"L";"blue";"black";"parity";8;0;0;1;1;0
"4114";"NE3";"BRAC1_horiLA_1st0";1;89;687;"A";1;0;NA;"A";"red";"black";"parity";9;0;0;1;1;0
"4118";"NE3";"BRAC1_horiLA_1st0";1;90;560;"A";1;0;NA;"A";"red";"black";"magnit";7;0;1;0;0;0
"4122";"NE3";"BRAC1_horiLA_1st0";1;91;576;"L";1;0;NA;"L";"red";"black";"parity";4;0;1;1;0;0
"4126";"NE3";"BRAC1_horiLA_1st0";1;92;1212;"L";1;0;NA;"L";"red";"black";"magnit";3;0;1;0;0;0
"4130";"NE3";"BRAC1_horiLA_1st0";1;93;795;"L";1;0;NA;"L";"blue";"black";"magnit";4;0;0;0;1;0
"4134";"NE3";"BRAC1_horiLA_1st0";1;94;623;"L";1;0;NA;"L";"red";"black";"parity";2;0;1;0;1;0
"4138";"NE3";"BRAC1_horiLA_1st0";1;95;643;"L";1;0;NA;"L";"blue";"black";"magnit";1;0;1;0;1;0
"4143";"NE3";"BRAC1_horiLA_1st0";2;0;1734,00000000012;"L";1;0;NA;"L";"blue";"black";"parity";4;300;99;99;99;99
"4147";"NE3";"BRAC1_horiLA_1st0";2;1;584,999999999884;"A";1;0;NA;"A";"blue";"black";"magnit";9;300;1;1;0;0
"4151";"NE3";"BRAC1_horiLA_1st0";2;2;1205;"L";1;0;NA;"L";"blue";"black";"magnit";4;300;0;1;0;0
"4155";"NE3";"BRAC1_horiLA_1st0";2;3;1184;"L";1;0;NA;"L";"red";"black";"parity";2;300;1;0;1;0
"4159";"NE3";"BRAC1_horiLA_1st0";2;4;1075;"L";1;0;NA;"L";"red";"black";"magnit";1;300;1;0;0;0
"4163";"NE3";"BRAC1_horiLA_1st0";2;5;622,000000000116;"A";1;0;NA;"A";"blue";"black";"magnit";6;300;0;1;1;0
"4167";"NE3";"BRAC1_horiLA_1st0";2;6;556,999999999884;"A";1;0;NA;"A";"red";"black";"parity";9;300;1;0;1;0
"4171";"NE3";"BRAC1_horiLA_1st0";2;7;1620;"A";1;0;NA;"A";"blue";"black";"magnit";8;300;1;0;1;0
"4175";"NE3";"BRAC1_horiLA_1st0";2;8;1586;"A";1;0;NA;"A";"red";"black";"parity";7;300;1;0;1;0
"4179";"NE3";"BRAC1_horiLA_1st0";2;9;1331;"A";1;0;NA;"A";"blue";"black";"parity";9;300;0;0;1;0
"4183";"NE3";"BRAC1_horiLA_1st0";2;10;1987,99999999988;"L";1;0;NA;"L";"red";"black";"magnit";1;300;1;1;1;0
"4187";"NE3";"BRAC1_horiLA_1st0";2;11;1057;"L";1;0;NA;"L";"red";"black";"parity";8;300;1;0;0;0
"4191";"NE3";"BRAC1_horiLA_1st0";2;12;1768;"L";1;0;NA;"L";"red";"black";"magnit";3;300;1;0;0;0
"4195";"NE3";"BRAC1_horiLA_1st0";2;13;543;"L";1;0;NA;"L";"blue";"black";"magnit";1;300;0;0;1;0
"4199";"NE3";"BRAC1_horiLA_1st0";2;14;541;"A";1;0;NA;"A";"red";"black";"magnit";9;300;0;1;1;0
"4203";"NE3";"BRAC1_horiLA_1st0";2;15;1056,99999999988;"A";1;0;NA;"A";"blue";"black";"parity";3;300;1;0;1;0
"4207";"NE3";"BRAC1_horiLA_1st0";2;16;985;"L";1;0;NA;"L";"blue";"black";"parity";8;300;0;1;0;0
"4211";"NE3";"BRAC1_horiLA_1st0";2;17;1244;"A";1;0;NA;"A";"blue";"black";"magnit";7;300;1;1;0;0
"4215";"NE3";"BRAC1_horiLA_1st0";2;18;1793;"L";1;0;NA;"L";"red";"black";"parity";4;300;1;1;1;0
"4219";"NE3";"BRAC1_horiLA_1st0";2;19;617;"L";1;0;NA;"L";"blue";"black";"parity";8;300;0;0;1;0
"4223";"NE3";"BRAC1_horiLA_1st0";2;20;530;"L";1;0;NA;"L";"blue";"black";"parity";2;300;0;0;0;0
"4227";"NE3";"BRAC1_horiLA_1st0";2;21;671;"L";1;0;NA;"L";"red";"black";"parity";6;300;0;0;1;0
"4231";"NE3";"BRAC1_horiLA_1st0";2;22;1153;"L";1;0;NA;"L";"red";"black";"magnit";4;300;1;0;0;0
"4235";"NE3";"BRAC1_horiLA_1st0";2;23;633;"L";1;0;NA;"L";"blue";"black";"magnit";2;300;0;0;1;0
"4239";"NE3";"BRAC1_horiLA_1st0";2;24;563;"L";1;0;NA;"L";"red";"black";"magnit";4;300;0;0;1;0
"4243";"NE3";"BRAC1_horiLA_1st0";2;25;676;"L";1;0;NA;"L";"red";"black";"parity";6;300;1;0;0;0
"4247";"NE3";"BRAC1_horiLA_1st0";2;26;874,000000000116;"L";1;0;NA;"L";"red";"black";"parity";8;300;0;0;0;0
"4251";"NE3";"BRAC1_horiLA_1st0";2;27;573,000000000116;"L";1;0;NA;"L";"blue";"black";"parity";6;300;0;0;1;0
"4255";"NE3";"BRAC1_horiLA_1st0";2;28;485,999999999884;"L";1;0;NA;"L";"red";"black";"parity";8;300;0;0;1;0
"4259";"NE3";"BRAC1_horiLA_1st0";2;29;590,000000000116;"A";1;0;NA;"A";"red";"black";"parity";7;300;0;1;0;0
"4263";"NE3";"BRAC1_horiLA_1st0";2;30;1287;"L";1;0;NA;"L";"red";"black";"magnit";2;300;1;1;0;0
"4267";"NE3";"BRAC1_horiLA_1st0";2;31;545;"A";1;0;NA;"A";"blue";"black";"magnit";8;300;0;1;1;0
"4271";"NE3";"BRAC1_horiLA_1st0";2;32;1246,00000000012;"A";1;0;NA;"A";"blue";"black";"parity";9;300;1;0;0;0
"4275";"NE3";"BRAC1_horiLA_1st0";2;33;674,999999999884;"A";1;0;NA;"A";"red";"black";"parity";3;300;0;0;1;0
"4279";"NE3";"BRAC1_horiLA_1st0";2;34;1378,99999999988;"A";1;0;NA;"A";"red";"black";"magnit";6;300;1;0;0;0
"4283";"NE3";"BRAC1_horiLA_1st0";2;35;565,999999999884;"L";1;0;NA;"L";"blue";"black";"magnit";2;300;0;1;1;0
"4287";"NE3";"BRAC1_horiLA_1st0";2;36;549,000000000116;"A";1;0;NA;"A";"red";"black";"magnit";8;300;0;1;1;0
"4291";"NE3";"BRAC1_horiLA_1st0";2;37;1574;"A";1;0;NA;"A";"red";"black";"magnit";9;300;0;0;0;0
"4295";"NE3";"BRAC1_horiLA_1st0";2;38;468;"A";1;0;NA;"A";"red";"black";"magnit";8;300;0;0;0;0
"4299";"NE3";"BRAC1_horiLA_1st0";2;39;738;"A";1;0;NA;"A";"blue";"black";"parity";3;300;1;0;1;0
"4303";"NE3";"BRAC1_horiLA_1st0";2;40;659;"A";1;0;NA;"A";"red";"black";"parity";1;300;0;0;1;0
"4307";"NE3";"BRAC1_horiLA_1st0";2;41;1000;"L";1;0;NA;"L";"red";"black";"magnit";3;300;1;1;0;0
"4311";"NE3";"BRAC1_horiLA_1st0";2;42;1259;"L";1;0;NA;"L";"blue";"black";"parity";4;300;1;0;1;0
"4315";"NE3";"BRAC1_horiLA_1st0";2;43;742;"A";1;0;NA;"A";"red";"black";"magnit";7;300;1;1;1;0
"4319";"NE3";"BRAC1_horiLA_1st0";2;44;1094;"L";1;0;NA;"L";"blue";"black";"parity";4;300;1;1;1;0
"4323";"NE3";"BRAC1_horiLA_1st0";2;45;991,000000000233;"A";1;0;NA;"A";"blue";"black";"magnit";9;300;1;1;0;0
"4327";"NE3";"BRAC1_horiLA_1st0";2;46;1338,00000000023;"L";1;0;NA;"L";"red";"black";"parity";6;300;1;1;1;0
"4331";"NE3";"BRAC1_horiLA_1st0";2;47;1136,99999999988;"L";1;0;NA;"L";"blue";"black";"parity";8;300;0;0;1;0
"4335";"NE3";"BRAC1_horiLA_1st0";2;48;1120,00000000012;"L";1;0;NA;"L";"red";"black";"magnit";1;300;1;0;1;0
"4339";"NE3";"BRAC1_horiLA_1st0";2;49;1881;"A";1;0;NA;"A";"blue";"black";"parity";7;300;1;1;1;0
"4343";"NE3";"BRAC1_horiLA_1st0";2;50;569;"A";1;0;NA;"A";"red";"black";"parity";9;300;0;0;1;0
"4347";"NE3";"BRAC1_horiLA_1st0";2;51;639,000000000116;"L";1;0;NA;"L";"blue";"black";"magnit";4;300;1;1;1;0
"4351";"NE3";"BRAC1_horiLA_1st0";2;52;955;"A";1;0;NA;"A";"red";"black";"parity";1;300;1;1;1;0
"4355";"NE3";"BRAC1_horiLA_1st0";2;53;858;"A";1;0;NA;"A";"red";"black";"parity";3;300;0;0;0;0
"4359";"NE3";"BRAC1_horiLA_1st0";2;54;1227,00000000023;"L";1;0;NA;"L";"blue";"black";"magnit";1;300;1;1;1;0
"4363";"NE3";"BRAC1_horiLA_1st0";2;55;583;"A";1;0;NA;"A";"red";"black";"magnit";7;300;0;1;1;0
"4367";"NE3";"BRAC1_horiLA_1st0";2;56;762;"A";1;1;NA;"L";"blue";"black";"magnit";1;300;0;1;1;0
"4371";"NE3";"BRAC1_horiLA_1st0";2;57;846;"A";1;0;NA;"A";"red";"black";"parity";3;300;1;1;1;1
"4375";"NE3";"BRAC1_horiLA_1st0";2;58;474;"A";1;0;NA;"A";"blue";"black";"parity";1;300;0;0;1;0
"4379";"NE3";"BRAC1_horiLA_1st0";2;59;695;"A";1;0;NA;"A";"red";"black";"magnit";7;300;1;0;1;0
"4383";"NE3";"BRAC1_horiLA_1st0";2;60;622,999999999767;"A";1;0;NA;"A";"blue";"black";"parity";9;300;1;0;1;0
"4387";"NE3";"BRAC1_horiLA_1st0";2;61;1677;"A";1;0;NA;"A";"blue";"black";"parity";1;300;0;0;0;0
"4391";"NE3";"BRAC1_horiLA_1st0";2;62;1095;"A";1;0;NA;"A";"red";"black";"parity";7;300;0;0;1;0
"4395";"NE3";"BRAC1_horiLA_1st0";2;63;1559;"A";1;0;NA;"A";"blue";"black";"magnit";8;300;1;0;1;0
"4399";"NE3";"BRAC1_horiLA_1st0";2;64;718;"A";1;0;NA;"A";"red";"black";"magnit";9;300;0;0;1;0
"4403";"NE3";"BRAC1_horiLA_1st0";2;65;1526;"L";1;0;NA;"L";"blue";"black";"magnit";3;300;0;1;1;0
"4407";"NE3";"BRAC1_horiLA_1st0";2;66;984,000000000233;"L";1;0;NA;"L";"red";"black";"parity";2;300;1;0;1;0
"4411";"NE3";"BRAC1_horiLA_1st0";2;67;791;"A";1;0;NA;"A";"blue";"black";"magnit";6;300;1;1;1;0
"4415";"NE3";"BRAC1_horiLA_1st0";2;68;683;"L";1;0;NA;"L";"blue";"black";"parity";2;300;1;1;0;0
"4419";"NE3";"BRAC1_horiLA_1st0";2;69;697;"A";1;0;NA;"A";"blue";"black";"magnit";7;300;1;1;0;0
"4423";"NE3";"BRAC1_horiLA_1st0";2;70;1267;"A";1;0;NA;"A";"blue";"black";"parity";1;300;1;0;0;0
"4427";"NE3";"BRAC1_horiLA_1st0";2;71;660;"A";1;0;NA;"A";"blue";"black";"magnit";9;300;1;0;0;0
"4431";"NE3";"BRAC1_horiLA_1st0";2;72;1304;"A";1;0;NA;"A";"blue";"black";"magnit";7;300;0;0;0;0
"4435";"NE3";"BRAC1_horiLA_1st0";2;73;1046;"L";1;0;NA;"L";"red";"black";"parity";2;300;1;1;1;0
"4439";"NE3";"BRAC1_horiLA_1st0";2;74;849;"L";1;0;NA;"L";"blue";"black";"parity";6;300;0;0;1;0
"4443";"NE3";"BRAC1_horiLA_1st0";2;75;566,999999999767;"A";1;0;NA;"A";"blue";"black";"parity";7;300;0;1;0;0
"4447";"NE3";"BRAC1_horiLA_1st0";2;76;864;"L";1;0;NA;"L";"red";"black";"parity";4;300;0;1;1;0
"4451";"NE3";"BRAC1_horiLA_1st0";2;77;677;"A";1;0;NA;"A";"red";"black";"magnit";6;300;1;1;0;0
"4455";"NE3";"BRAC1_horiLA_1st0";2;78;703;"L";1;0;NA;"L";"red";"black";"magnit";2;300;0;1;0;0
"4459";"NE3";"BRAC1_horiLA_1st0";2;79;646;"L";1;0;NA;"L";"red";"black";"magnit";3;300;0;0;0;0
"4463";"NE3";"BRAC1_horiLA_1st0";2;80;847;"L";1;0;NA;"L";"red";"black";"parity";4;300;1;0;0;0
"4467";"NE3";"BRAC1_horiLA_1st0";2;81;878;"A";1;0;NA;"A";"red";"black";"parity";9;300;0;1;0;0
"4471";"NE3";"BRAC1_horiLA_1st0";2;82;1770,99999999977;"A";1;0;NA;"A";"blue";"black";"parity";3;300;0;0;1;0
"4475";"NE3";"BRAC1_horiLA_1st0";2;83;557;"A";1;0;NA;"A";"blue";"black";"parity";7;300;0;0;0;0
"4479";"NE3";"BRAC1_horiLA_1st0";2;84;586;"L";1;0;NA;"L";"blue";"black";"magnit";2;300;1;1;0;0
"4483";"NE3";"BRAC1_horiLA_1st0";2;85;1129;"A";1;0;NA;"A";"blue";"black";"magnit";6;300;0;1;0;0
"4487";"NE3";"BRAC1_horiLA_1st0";2;86;1077;"L";1;0;NA;"L";"blue";"black";"magnit";3;300;0;1;0;0
"4491";"NE3";"BRAC1_horiLA_1st0";2;87;1032;"A";1;0;NA;"A";"red";"black";"magnit";6;300;0;1;1;0
"4495";"NE3";"BRAC1_horiLA_1st0";2;88;553,000000000233;"L";1;0;NA;"L";"blue";"black";"magnit";4;300;0;1;1;0
"4499";"NE3";"BRAC1_horiLA_1st0";2;89;691;"A";1;0;NA;"A";"red";"black";"parity";1;300;1;1;1;0
"4503";"NE3";"BRAC1_horiLA_1st0";2;90;1086;"L";1;0;NA;"L";"red";"black";"magnit";4;300;1;1;0;0
"4507";"NE3";"BRAC1_horiLA_1st0";2;91;1178;"L";1;0;NA;"L";"blue";"black";"parity";6;300;1;0;1;0
"4511";"NE3";"BRAC1_horiLA_1st0";2;92;1277,00000000023;"L";1;0;NA;"L";"red";"black";"magnit";2;300;1;0;1;0
"4515";"NE3";"BRAC1_horiLA_1st0";2;93;1084;"L";1;0;NA;"L";"blue";"black";"magnit";3;300;0;0;1;0
"4519";"NE3";"BRAC1_horiLA_1st0";2;94;1657;"A";1;0;NA;"A";"red";"black";"magnit";8;300;0;1;1;0
"4523";"NE3";"BRAC1_horiLA_1st0";2;95;660,999999999767;"L";1;0;NA;"L";"blue";"black";"parity";2;300;1;1;1;0
"4528";"NE3";"BRAC1_horiLA_1st0";3;0;996;"L";1;0;NA;"L";"blue";"black";"magnit";2;0;99;99;99;99
"4532";"NE3";"BRAC1_horiLA_1st0";3;1;532;"A";1;0;NA;"A";"blue";"black";"magnit";8;0;0;1;0;0
"4536";"NE3";"BRAC1_horiLA_1st0";3;2;470;"A";1;0;NA;"A";"blue";"black";"magnit";9;0;0;0;0;0
"4540";"NE3";"BRAC1_horiLA_1st0";3;3;581;"L";1;0;NA;"L";"blue";"black";"magnit";1;0;0;1;0;0
"4544";"NE3";"BRAC1_horiLA_1st0";3;4;461;"A";1;0;NA;"A";"red";"black";"parity";9;0;1;1;1;0
"4548";"NE3";"BRAC1_horiLA_1st0";3;5;749;"A";1;0;NA;"A";"blue";"black";"parity";3;0;0;0;1;0
"4552";"NE3";"BRAC1_horiLA_1st0";3;6;455;"A";1;0;NA;"A";"red";"black";"parity";9;0;0;0;1;0
"4556";"NE3";"BRAC1_horiLA_1st0";3;7;966,999999999767;"L";1;1;NA;"A";"blue";"black";"magnit";8;0;1;0;1;0
"4560";"NE3";"BRAC1_horiLA_1st0";3;8;821;"L";1;0;NA;"L";"red";"black";"parity";6;0;1;1;1;1
"4564";"NE3";"BRAC1_horiLA_1st0";3;9;2501;NA;NA;1;1;"L";"blue";"black";"magnit";1;0;1;0;1;0
"4568";"NE3";"BRAC1_horiLA_1st0";3;10;800;"L";1;0;NA;"L";"red";"black";"parity";2;0;1;0;1;1
"4572";"NE3";"BRAC1_horiLA_1st0";3;11;987;"A";1;0;NA;"A";"blue";"black";"magnit";6;0;1;1;1;0
"4576";"NE3";"BRAC1_horiLA_1st0";3;12;553,999999999767;"A";1;0;NA;"A";"red";"black";"parity";3;0;1;0;1;0
"4580";"NE3";"BRAC1_horiLA_1st0";3;13;895;"L";1;0;NA;"L";"red";"black";"parity";4;0;0;1;0;0
"4584";"NE3";"BRAC1_horiLA_1st0";3;14;1161;"L";1;0;NA;"L";"blue";"black";"parity";6;0;0;0;1;0
"4588";"NE3";"BRAC1_horiLA_1st0";3;15;1070;"A";1;0;NA;"A";"red";"black";"magnit";7;0;1;1;1;0
"4592";"NE3";"BRAC1_horiLA_1st0";3;16;582;"L";1;0;NA;"L";"blue";"black";"magnit";2;0;0;1;1;0
"4596";"NE3";"BRAC1_horiLA_1st0";3;17;1237;"L";1;0;NA;"L";"blue";"black";"magnit";1;0;0;0;0;0
"4600";"NE3";"BRAC1_horiLA_1st0";3;18;750;"L";1;0;NA;"L";"blue";"black";"magnit";4;0;0;0;0;0
"4604";"NE3";"BRAC1_horiLA_1st0";3;19;634;"A";1;0;NA;"A";"red";"black";"magnit";9;0;0;1;1;0
"4608";"NE3";"BRAC1_horiLA_1st0";3;20;836,999999999767;"L";1;0;NA;"L";"red";"black";"parity";8;0;1;1;0;0
"4612";"NE3";"BRAC1_horiLA_1st0";3;21;872;"L";1;0;NA;"L";"red";"black";"magnit";3;0;1;0;0;0
"4616";"NE3";"BRAC1_horiLA_1st0";3;22;523;"A";1;0;NA;"A";"blue";"black";"magnit";8;0;0;1;1;0
"4620";"NE3";"BRAC1_horiLA_1st0";3;23;1249;"L";1;0;NA;"L";"red";"black";"parity";4;0;1;1;1;0
"4624";"NE3";"BRAC1_horiLA_1st0";3;24;559;"L";1;0;NA;"L";"red";"black";"magnit";1;0;1;0;0;0
"4628";"NE3";"BRAC1_horiLA_1st0";3;25;485,000000000233;"A";1;0;NA;"A";"blue";"black";"parity";7;0;1;1;1;0
"4632";"NE3";"BRAC1_horiLA_1st0";3;26;504;"L";1;0;NA;"L";"blue";"black";"magnit";3;0;1;1;0;0
"4636";"NE3";"BRAC1_horiLA_1st0";3;27;892;"L";1;0;NA;"L";"blue";"black";"parity";4;0;1;0;0;0
"4640";"NE3";"BRAC1_horiLA_1st0";3;28;581;"L";1;0;NA;"L";"red";"black";"magnit";2;0;1;0;1;0
"4644";"NE3";"BRAC1_horiLA_1st0";3;29;938;"A";1;0;NA;"A";"red";"black";"parity";3;0;1;1;0;0
"4648";"NE3";"BRAC1_horiLA_1st0";3;30;1589;"L";1;0;NA;"L";"blue";"black";"magnit";4;0;1;1;1;0
"4652";"NE3";"BRAC1_horiLA_1st0";3;31;742,999999999767;"A";1;0;NA;"A";"blue";"black";"parity";1;0;1;1;0;0
"4656";"NE3";"BRAC1_horiLA_1st0";3;32;513,999999999767;"L";1;0;NA;"L";"blue";"black";"magnit";4;0;1;1;0;0
"4660";"NE3";"BRAC1_horiLA_1st0";3;33;799;"L";1;1;NA;"A";"blue";"black";"parity";1;0;1;1;0;0
"4664";"NE3";"BRAC1_horiLA_1st0";3;34;748,999999999767;"A";1;0;NA;"A";"red";"black";"magnit";7;0;1;0;1;1
"4668";"NE3";"BRAC1_horiLA_1st0";3;35;935,999999999767;"L";1;0;NA;"L";"blue";"black";"parity";4;0;1;1;1;0
"4672";"NE3";"BRAC1_horiLA_1st0";3;36;512;"A";1;0;NA;"A";"red";"black";"magnit";6;0;1;1;1;0
"4676";"NE3";"BRAC1_horiLA_1st0";3;37;1310;"A";1;0;NA;"A";"blue";"black";"parity";7;0;1;0;1;0
"4680";"NE3";"BRAC1_horiLA_1st0";3;38;547;"L";1;0;NA;"L";"red";"black";"magnit";4;0;1;1;1;0
"4684";"NE3";"BRAC1_horiLA_1st0";3;39;863;"L";1;0;NA;"L";"red";"black";"parity";6;0;1;0;0;0
"4688";"NE3";"BRAC1_horiLA_1st0";3;40;1346;"L";1;0;NA;"L";"red";"black";"magnit";1;0;1;0;0;0
"4692";"NE3";"BRAC1_horiLA_1st0";3;41;655;"A";1;0;NA;"A";"blue";"black";"parity";9;0;1;1;1;0
"4696";"NE3";"BRAC1_horiLA_1st0";3;42;1233;"L";1;0;NA;"L";"red";"black";"parity";8;0;0;1;1;0
"4700";"NE3";"BRAC1_horiLA_1st0";3;43;1333;"L";1;0;NA;"L";"red";"black";"magnit";3;0;1;0;0;0
"4704";"NE3";"BRAC1_horiLA_1st0";3;44;1124;"L";1;0;NA;"L";"red";"black";"parity";6;0;1;0;0;0
"4708";"NE3";"BRAC1_horiLA_1st0";3;45;618,999999999767;"L";1;0;NA;"L";"red";"black";"magnit";2;0;1;0;0;0
"4712";"NE3";"BRAC1_horiLA_1st0";3;46;899;"A";1;0;NA;"A";"blue";"black";"magnit";6;0;0;1;1;0
"4716";"NE3";"BRAC1_horiLA_1st0";3;47;1413;"L";1;0;NA;"L";"blue";"black";"parity";2;0;1;1;0;0
"4720";"NE3";"BRAC1_horiLA_1st0";3;48;999;"A";1;0;NA;"A";"red";"black";"parity";1;0;0;1;1;0
"4724";"NE3";"BRAC1_horiLA_1st0";3;49;1111;"A";1;0;NA;"A";"red";"black";"magnit";8;0;1;0;0;0
"4728";"NE3";"BRAC1_horiLA_1st0";3;50;1089;"L";1;0;NA;"L";"red";"black";"magnit";3;0;0;1;0;0
"4732";"NE3";"BRAC1_horiLA_1st0";3;51;574,999999999767;"L";1;0;NA;"L";"red";"black";"magnit";4;0;0;0;0;0
"4736";"NE3";"BRAC1_horiLA_1st0";3;52;1096;"L";1;0;NA;"L";"red";"black";"parity";2;0;1;0;0;0
"4740";"NE3";"BRAC1_horiLA_1st0";3;53;778;"A";1;0;NA;"A";"blue";"black";"magnit";9;0;1;1;1;0
"4744";"NE3";"BRAC1_horiLA_1st0";3;54;1408;"L";1;0;NA;"L";"red";"black";"parity";4;0;1;1;1;0
"4748";"NE3";"BRAC1_horiLA_1st0";3;55;1093,99999999977;"A";1;0;NA;"A";"red";"black";"parity";7;0;0;1;0;0
"4752";"NE3";"BRAC1_horiLA_1st0";3;56;822;"A";1;0;NA;"A";"red";"black";"parity";1;0;0;0;0;0
"4756";"NE3";"BRAC1_horiLA_1st0";3;57;607;"L";1;0;NA;"L";"red";"black";"parity";2;0;0;1;0;0
"4760";"NE3";"BRAC1_horiLA_1st0";3;58;762;"A";1;0;NA;"A";"blue";"black";"parity";3;0;0;1;1;0
"4764";"NE3";"BRAC1_horiLA_1st0";3;59;585;"A";1;0;NA;"A";"red";"black";"magnit";6;0;1;0;1;0
"4768";"NE3";"BRAC1_horiLA_1st0";3;60;1057;"L";1;0;NA;"L";"blue";"black";"parity";8;0;1;1;1;0
"4772";"NE3";"BRAC1_horiLA_1st0";3;61;1090;"A";1;0;NA;"A";"red";"black";"parity";1;0;0;1;1;0
"4776";"NE3";"BRAC1_horiLA_1st0";3;62;1706,00000000023;"L";1;0;NA;"L";"blue";"black";"parity";6;0;0;1;1;0
"4780";"NE3";"BRAC1_horiLA_1st0";3;63;527;"L";1;0;NA;"L";"blue";"black";"magnit";3;0;1;0;0;0
"4784";"NE3";"BRAC1_horiLA_1st0";3;64;514,999999999767;"A";1;0;NA;"A";"red";"black";"magnit";7;0;0;1;1;0
"4788";"NE3";"BRAC1_horiLA_1st0";3;65;495;"A";1;0;NA;"A";"red";"black";"magnit";8;0;0;0;0;0
"4792";"NE3";"BRAC1_horiLA_1st0";3;66;661;"L";1;0;NA;"L";"blue";"black";"magnit";2;0;0;1;1;0
"4796";"NE3";"BRAC1_horiLA_1st0";3;67;738,999999999767;"A";1;0;NA;"A";"blue";"black";"magnit";6;0;0;1;0;0
"4800";"NE3";"BRAC1_horiLA_1st0";3;68;442;"A";1;0;NA;"A";"blue";"black";"magnit";7;0;0;0;0;0
"4804";"NE3";"BRAC1_horiLA_1st0";3;69;722;"L";1;0;NA;"L";"red";"black";"magnit";2;0;0;1;1;0
"4808";"NE3";"BRAC1_horiLA_1st0";3;70;666,000000000233;"A";1;1;NA;"L";"red";"black";"magnit";4;0;0;0;0;0
"4812";"NE3";"BRAC1_horiLA_1st0";3;71;1049;"L";1;0;NA;"L";"blue";"black";"parity";6;0;1;0;1;1
"4816";"NE3";"BRAC1_horiLA_1st0";3;72;634;"A";1;0;NA;"A";"blue";"black";"parity";1;0;0;1;0;0
"4820";"NE3";"BRAC1_horiLA_1st0";3;73;754;"L";1;0;NA;"L";"blue";"black";"parity";2;0;0;1;0;0
"4824";"NE3";"BRAC1_horiLA_1st0";3;74;711;"A";1;0;NA;"A";"red";"black";"parity";3;0;0;1;1;0
"4828";"NE3";"BRAC1_horiLA_1st0";3;75;795;"A";1;0;NA;"A";"blue";"black";"parity";9;0;0;0;1;0
"4832";"NE3";"BRAC1_horiLA_1st0";3;76;612,999999999767;"A";1;0;NA;"A";"blue";"black";"parity";7;0;0;0;0;0
"4836";"NE3";"BRAC1_horiLA_1st0";3;77;717,000000000233;"L";1;0;NA;"L";"blue";"black";"parity";8;0;0;1;0;0
"4840";"NE3";"BRAC1_horiLA_1st0";3;78;469;"A";1;0;NA;"A";"blue";"black";"magnit";7;0;1;1;0;0
"4844";"NE3";"BRAC1_horiLA_1st0";3;79;612;"A";1;0;NA;"A";"red";"black";"magnit";6;0;0;0;1;0
"4848";"NE3";"BRAC1_horiLA_1st0";3;80;500;"A";1;0;NA;"A";"red";"black";"parity";9;0;1;0;0;0
"4852";"NE3";"BRAC1_horiLA_1st0";3;81;1013;"L";1;0;NA;"L";"red";"black";"magnit";1;0;1;1;0;0
"4856";"NE3";"BRAC1_horiLA_1st0";3;82;912,000000000233;"A";1;0;NA;"A";"red";"black";"magnit";9;0;0;1;0;0
"4860";"NE3";"BRAC1_horiLA_1st0";3;83;601;"A";1;0;NA;"A";"blue";"black";"magnit";7;0;0;0;1;0
"4864";"NE3";"BRAC1_horiLA_1st0";3;84;617,999999999767;"A";1;0;NA;"A";"red";"black";"magnit";8;0;0;0;1;0
"4868";"NE3";"BRAC1_horiLA_1st0";3;85;519;"A";1;0;NA;"A";"blue";"black";"parity";9;0;1;0;1;0
"4872";"NE3";"BRAC1_horiLA_1st0";3;86;1165,00000000023;"L";1;0;NA;"L";"blue";"black";"parity";8;0;0;1;0;0
"4876";"NE3";"BRAC1_horiLA_1st0";3;87;1804;"A";1;0;NA;"A";"blue";"black";"magnit";9;0;1;1;0;0
"4880";"NE3";"BRAC1_horiLA_1st0";3;88;588;"L";1;0;NA;"L";"blue";"black";"magnit";3;0;0;1;0;0
"4884";"NE3";"BRAC1_horiLA_1st0";3;89;685;"A";1;0;NA;"A";"red";"black";"magnit";9;0;0;1;1;0
"4888";"NE3";"BRAC1_horiLA_1st0";3;90;1152,00000000023;"L";1;0;NA;"L";"blue";"black";"parity";4;0;1;1;1;0
"4892";"NE3";"BRAC1_horiLA_1st0";3;91;675,000000000233;"L";1;0;NA;"L";"red";"black";"parity";8;0;0;0;1;0
"4896";"NE3";"BRAC1_horiLA_1st0";3;92;640;"A";1;0;NA;"A";"red";"black";"parity";7;0;0;1;0;0
"4900";"NE3";"BRAC1_horiLA_1st0";3;93;643;"L";1;0;NA;"L";"blue";"black";"parity";2;0;0;1;1;0
"4904";"NE3";"BRAC1_horiLA_1st0";3;94;460;"A";1;0;NA;"A";"red";"black";"parity";7;0;0;1;1;0
"4908";"NE3";"BRAC1_horiLA_1st0";3;95;737;"A";1;0;NA;"A";"blue";"black";"parity";3;0;0;0;1;0
"4986";"WI5";"BRAC1_horiAA_1st300";0;0;1682,93499998981;"L";1;0;NA;"L";"red";"black";"magnit";1;300;99;99;99;99
"4990";"WI5";"BRAC1_horiAA_1st300";0;1;1648,22000000277;"A";1;0;NA;"A";"red";"black";"magnit";7;300;0;1;0;0
"4994";"WI5";"BRAC1_horiAA_1st300";0;2;1217,18499998678;"L";1;0;NA;"L";"red";"black";"magnit";1;300;0;1;0;0
"4998";"WI5";"BRAC1_horiAA_1st300";0;3;2047,89499999606;"A";1;0;NA;"A";"blue";"black";"magnit";7;300;0;1;1;0
"5002";"WI5";"BRAC1_horiAA_1st300";0;4;1690,31500001438;"A";1;1;NA;"L";"red";"black";"parity";8;300;1;1;1;0
"5006";"WI5";"BRAC1_horiAA_1st300";0;5;2030,07000000798;"L";1;0;NA;"L";"blue";"black";"magnit";2;300;1;0;1;1
"5010";"WI5";"BRAC1_horiAA_1st300";0;6;1597,91500002029;"L";1;1;NA;"A";"red";"black";"parity";7;300;1;1;1;0
"5014";"WI5";"BRAC1_horiAA_1st300";0;7;2055,26500000269;"A";1;0;NA;"A";"red";"black";"parity";9;300;0;0;0;1
"5018";"WI5";"BRAC1_horiAA_1st300";0;8;1271,78000001004;"L";1;0;NA;"L";"blue";"black";"magnit";4;300;1;1;1;0
"5022";"WI5";"BRAC1_horiAA_1st300";0;9;1229,83999998542;"A";1;0;NA;"A";"blue";"black";"magnit";7;300;0;1;0;0
"5026";"WI5";"BRAC1_horiAA_1st300";0;10;1933,19999999949;"A";1;1;NA;"L";"blue";"black";"parity";4;300;1;1;0;0
"5030";"WI5";"BRAC1_horiAA_1st300";0;11;2502,81199999998;NA;NA;1;1;"A";"blue";"black";"parity";1;300;0;1;0;1
"5034";"WI5";"BRAC1_horiAA_1st300";0;12;1170,4000000027;"A";1;0;NA;"A";"blue";"black";"magnit";8;300;1;0;0;1
"5038";"WI5";"BRAC1_horiAA_1st300";0;13;1351,38000000734;"L";1;1;NA;"A";"red";"black";"parity";9;300;1;0;1;0
"5042";"WI5";"BRAC1_horiAA_1st300";0;14;1432,21999998786;"L";1;1;NA;"A";"blue";"black";"parity";3;300;0;0;1;1
"5046";"WI5";"BRAC1_horiAA_1st300";0;15;2502,70399999997;NA;NA;1;1;"L";"blue";"black";"magnit";1;300;1;1;0;1
"5050";"WI5";"BRAC1_horiAA_1st300";0;16;2247,55999998888;"A";1;0;NA;"A";"red";"black";"magnit";9;300;0;1;1;1
"5054";"WI5";"BRAC1_horiAA_1st300";0;17;1765,56999998866;"L";1;0;NA;"L";"blue";"black";"parity";2;300;1;1;1;0
"5058";"WI5";"BRAC1_horiAA_1st300";0;18;1118,99000001722;"A";1;0;NA;"A";"blue";"black";"parity";1;300;0;1;0;0
"5062";"WI5";"BRAC1_horiAA_1st300";0;19;867,005000007339;"A";1;0;NA;"A";"blue";"black";"magnit";8;300;1;0;0;0
"5066";"WI5";"BRAC1_horiAA_1st300";0;20;1896,1100000015;"L";1;1;NA;"A";"blue";"black";"parity";1;300;1;0;0;0
"5070";"WI5";"BRAC1_horiAA_1st300";0;21;1303,8349999988;"L";1;0;NA;"L";"blue";"black";"magnit";3;300;1;1;0;1
"5074";"WI5";"BRAC1_horiAA_1st300";0;22;1760,47000000835;"A";1;1;NA;"L";"blue";"black";"parity";6;300;1;0;0;0
"5078";"WI5";"BRAC1_horiAA_1st300";0;23;1098,2049999875;"A";1;0;NA;"A";"red";"black";"magnit";9;300;1;1;1;1
"5082";"WI5";"BRAC1_horiAA_1st300";0;24;1505,73500001337;"A";1;0;NA;"A";"red";"black";"parity";1;300;1;0;0;0
"5086";"WI5";"BRAC1_horiAA_1st300";0;25;1009,08499999787;"L";1;0;NA;"L";"red";"black";"parity";4;300;0;1;0;0
"5090";"WI5";"BRAC1_horiAA_1st300";0;26;1086,76499998546;"A";1;0;NA;"A";"red";"black";"magnit";6;300;1;1;0;0
"5094";"WI5";"BRAC1_horiAA_1st300";0;27;1638,45500000753;"A";1;0;NA;"A";"red";"black";"parity";9;300;1;0;0;0
"5098";"WI5";"BRAC1_horiAA_1st300";0;28;1048,71000000276;"L";1;0;NA;"L";"blue";"black";"magnit";1;300;1;1;1;0
"5102";"WI5";"BRAC1_horiAA_1st300";0;29;934,275000006892;"L";1;0;NA;"L";"red";"black";"parity";2;300;1;0;1;0
"5106";"WI5";"BRAC1_horiAA_1st300";0;30;1018,44499999424;"L";1;0;NA;"L";"blue";"black";"magnit";3;300;1;0;1;0
"5110";"WI5";"BRAC1_horiAA_1st300";0;31;1532,88499999326;"A";1;1;NA;"L";"blue";"black";"parity";2;300;1;0;0;0
"5114";"WI5";"BRAC1_horiAA_1st300";0;32;1784,19000000576;"A";1;0;NA;"A";"blue";"black";"parity";7;300;0;1;0;1
"5118";"WI5";"BRAC1_horiAA_1st300";0;33;1129,66500001494;"L";1;0;NA;"L";"red";"black";"parity";4;300;0;1;1;0
"5122";"WI5";"BRAC1_horiAA_1st300";0;34;1443,87000001734;"L";1;0;NA;"L";"red";"black";"magnit";2;300;1;0;0;0
"5126";"WI5";"BRAC1_horiAA_1st300";0;35;1004,98999998672;"A";1;0;NA;"A";"blue";"black";"magnit";6;300;0;1;1;0
"5130";"WI5";"BRAC1_horiAA_1st300";0;36;1481,80999999749;"A";1;0;NA;"A";"blue";"black";"parity";7;300;1;0;0;0
"5134";"WI5";"BRAC1_horiAA_1st300";0;37;1159,91000001668;"A";1;0;NA;"A";"red";"black";"magnit";6;300;1;0;1;0
"5138";"WI5";"BRAC1_horiAA_1st300";0;38;1016,38000001549;"A";1;0;NA;"A";"red";"black";"magnit";8;300;0;0;0;0
"5142";"WI5";"BRAC1_horiAA_1st300";0;39;1317,84999999218;"A";1;0;NA;"A";"red";"black";"parity";7;300;1;0;0;0
"5146";"WI5";"BRAC1_horiAA_1st300";0;40;904,215000016848;"A";1;0;NA;"A";"red";"black";"parity";3;300;0;0;0;0
"5150";"WI5";"BRAC1_horiAA_1st300";0;41;1321,95000001229;"L";1;0;NA;"L";"blue";"black";"magnit";4;300;1;1;1;0
"5154";"WI5";"BRAC1_horiAA_1st300";0;42;1135,89499998488;"A";1;0;NA;"A";"red";"black";"magnit";8;300;0;1;1;0
"5158";"WI5";"BRAC1_horiAA_1st300";0;43;1037,30500000529;"L";1;0;NA;"L";"blue";"black";"parity";4;300;1;1;1;0
"5162";"WI5";"BRAC1_horiAA_1st300";0;44;1014,69999999972;"L";1;0;NA;"L";"blue";"black";"magnit";1;300;1;0;0;0
"5166";"WI5";"BRAC1_horiAA_1st300";0;45;2342,6750000217;"L";1;0;NA;"L";"red";"black";"magnit";4;300;0;0;1;0
"5170";"WI5";"BRAC1_horiAA_1st300";0;46;1260,43500000378;"A";1;0;NA;"A";"red";"black";"magnit";9;300;0;1;0;0
"5174";"WI5";"BRAC1_horiAA_1st300";0;47;1945,63000000198;"L";1;0;NA;"L";"blue";"black";"magnit";2;300;0;1;1;0
"5178";"WI5";"BRAC1_horiAA_1st300";0;48;1431,76499998663;"L";1;0;NA;"L";"blue";"black";"parity";6;300;1;0;0;0
"5182";"WI5";"BRAC1_horiAA_1st300";0;49;941,270000010263;"L";1;0;NA;"L";"red";"black";"parity";4;300;0;0;1;0
"5186";"WI5";"BRAC1_horiAA_1st300";0;50;1155,40000001783;"A";1;0;NA;"A";"blue";"black";"magnit";6;300;1;1;1;0
"5190";"WI5";"BRAC1_horiAA_1st300";0;51;754,710000008345;"A";1;0;NA;"A";"blue";"black";"magnit";9;300;0;0;0;0
"5194";"WI5";"BRAC1_horiAA_1st300";0;52;1541,66000001715;"A";1;0;NA;"A";"red";"black";"magnit";7;300;0;0;1;0
"5198";"WI5";"BRAC1_horiAA_1st300";0;53;655,80000000773;"L";1;0;NA;"L";"red";"black";"magnit";2;300;0;1;0;0
"5202";"WI5";"BRAC1_horiAA_1st300";0;54;1417,84499998903;"L";1;0;NA;"L";"red";"black";"magnit";3;300;0;0;0;0
"5206";"WI5";"BRAC1_horiAA_1st300";0;55;798,204999999143;"A";1;0;NA;"A";"red";"black";"magnit";7;300;0;1;0;0
"5210";"WI5";"BRAC1_horiAA_1st300";0;56;1093,5499999905;"L";1;0;NA;"L";"blue";"black";"parity";8;300;1;1;1;0
"5214";"WI5";"BRAC1_horiAA_1st300";0;57;808,380000002217;"L";1;0;NA;"L";"blue";"black";"parity";4;300;0;0;0;0
"5218";"WI5";"BRAC1_horiAA_1st300";0;58;660,13999999268;"L";1;0;NA;"L";"red";"black";"magnit";3;300;1;0;1;0
"5222";"WI5";"BRAC1_horiAA_1st300";0;59;1326,62499998696;"A";1;0;NA;"A";"red";"black";"parity";1;300;1;1;0;0
"5226";"WI5";"BRAC1_horiAA_1st300";0;60;987,04499998712;"L";1;0;NA;"L";"red";"black";"parity";6;300;0;1;0;0
"5230";"WI5";"BRAC1_horiAA_1st300";0;61;1531,59999998752;"A";1;1;NA;"L";"blue";"black";"parity";2;300;0;0;1;0
"5234";"WI5";"BRAC1_horiAA_1st300";0;62;1813,99500000407;"A";1;0;NA;"A";"blue";"black";"parity";3;300;0;1;0;1
"5238";"WI5";"BRAC1_horiAA_1st300";0;63;777,904999995371;"L";1;0;NA;"L";"blue";"black";"magnit";2;300;1;1;0;0
"5242";"WI5";"BRAC1_horiAA_1st300";0;64;1450,19999999204;"L";1;0;NA;"L";"red";"black";"magnit";3;300;0;0;1;0
"5246";"WI5";"BRAC1_horiAA_1st300";0;65;729,209999990417;"A";1;0;NA;"A";"blue";"black";"magnit";9;300;0;1;1;0
"5250";"WI5";"BRAC1_horiAA_1st300";0;66;1763,03000000189;"L";1;0;NA;"L";"red";"black";"magnit";4;300;0;1;1;0
"5254";"WI5";"BRAC1_horiAA_1st300";0;67;931,475000019418;"L";1;0;NA;"L";"red";"black";"magnit";2;300;0;0;0;0
"5258";"WI5";"BRAC1_horiAA_1st300";0;68;1460,65999998245;"L";1;0;NA;"L";"red";"black";"parity";6;300;1;0;0;0
"5262";"WI5";"BRAC1_horiAA_1st300";0;69;980,855000001611;"A";1;0;NA;"A";"blue";"black";"parity";9;300;0;1;1;0
"5266";"WI5";"BRAC1_horiAA_1st300";0;70;632,749999989755;"L";1;0;NA;"L";"red";"black";"parity";2;300;0;1;1;0
"5270";"WI5";"BRAC1_horiAA_1st300";0;71;1865,56499998551;"A";1;0;NA;"A";"red";"black";"parity";3;300;0;1;0;0
"5274";"WI5";"BRAC1_horiAA_1st300";0;72;1226,51000000769;"L";1;0;NA;"L";"blue";"black";"magnit";4;300;1;1;1;0
"5278";"WI5";"BRAC1_horiAA_1st300";0;73;1531,61000000546;"L";1;0;NA;"L";"blue";"black";"parity";8;300;1;0;0;0
"5282";"WI5";"BRAC1_horiAA_1st300";0;74;684,074999997392;"A";1;0;NA;"A";"blue";"black";"parity";7;300;0;1;0;0
"5286";"WI5";"BRAC1_horiAA_1st300";0;75;719,209999981103;"L";1;0;NA;"L";"blue";"black";"magnit";3;300;1;1;0;0
"5290";"WI5";"BRAC1_horiAA_1st300";0;76;1030,75000000536;"L";1;0;NA;"L";"red";"black";"magnit";1;300;0;0;1;0
"5294";"WI5";"BRAC1_horiAA_1st300";0;77;1689,72999998368;"A";1;0;NA;"A";"blue";"black";"parity";9;300;1;1;1;0
"5298";"WI5";"BRAC1_horiAA_1st300";0;78;1018,90999998432;"A";1;0;NA;"A";"blue";"black";"parity";3;300;0;0;0;0
"5302";"WI5";"BRAC1_horiAA_1st300";0;79;739,020000008168;"A";1;0;NA;"A";"blue";"black";"magnit";9;300;1;0;0;0
"5306";"WI5";"BRAC1_horiAA_1st300";0;80;1019,77499999339;"A";1;0;NA;"A";"blue";"black";"magnit";8;300;0;0;0;0
"5310";"WI5";"BRAC1_horiAA_1st300";0;81;2042,4650000059;"A";1;0;NA;"A";"red";"black";"magnit";6;300;0;0;1;0
"5314";"WI5";"BRAC1_horiAA_1st300";0;82;1106,24500000267;"A";1;0;NA;"A";"red";"black";"parity";3;300;1;0;0;0
"5318";"WI5";"BRAC1_horiAA_1st300";0;83;717,490000010002;"A";1;0;NA;"A";"blue";"black";"magnit";6;300;1;0;1;0
"5322";"WI5";"BRAC1_horiAA_1st300";0;84;1774,01999998256;"A";1;0;NA;"A";"red";"black";"magnit";8;300;0;0;1;0
"5326";"WI5";"BRAC1_horiAA_1st300";0;85;1433,02500000573;"L";1;0;NA;"L";"red";"black";"parity";2;300;1;1;0;0
"5330";"WI5";"BRAC1_horiAA_1st300";0;86;1269,94500000728;"A";1;0;NA;"A";"red";"black";"parity";7;300;0;1;0;0
"5334";"WI5";"BRAC1_horiAA_1st300";0;87;721,400000009453;"A";1;0;NA;"A";"blue";"black";"parity";9;300;0;0;1;0
"5338";"WI5";"BRAC1_horiAA_1st300";0;88;781,090000004042;"L";1;0;NA;"L";"red";"black";"parity";8;300;0;1;1;0
"5342";"WI5";"BRAC1_horiAA_1st300";0;89;938,400000013644;"A";1;0;NA;"A";"red";"black";"parity";1;300;0;1;0;0
"5346";"WI5";"BRAC1_horiAA_1st300";0;90;1394,93500001845;"L";1;0;NA;"L";"blue";"black";"parity";8;300;0;1;1;0
"5350";"WI5";"BRAC1_horiAA_1st300";0;91;1030,44500001124;"A";1;0;NA;"A";"blue";"black";"magnit";7;300;1;1;0;0
"5354";"WI5";"BRAC1_horiAA_1st300";0;92;1481,46500001894;"L";1;0;NA;"L";"red";"black";"parity";8;300;1;1;1;0
"5358";"WI5";"BRAC1_horiAA_1st300";0;93;1097,81500001554;"L";1;0;NA;"L";"blue";"black";"parity";6;300;0;0;1;0
"5362";"WI5";"BRAC1_horiAA_1st300";0;94;724,819999973988;"L";1;0;NA;"L";"red";"black";"magnit";4;300;1;0;1;0
"5366";"WI5";"BRAC1_horiAA_1st300";0;95;2502,69899999991;NA;NA;1;1;"L";"red";"black";"parity";6;300;1;0;0;0
"5371";"WI5";"BRAC1_horiAA_1st300";1;0;938,339999993332;"L";1;0;NA;"L";"blue";"black";"magnit";2;0;99;99;99;99
"5375";"WI5";"BRAC1_horiAA_1st300";1;1;1979,73000002094;"L";1;1;NA;"A";"blue";"black";"parity";9;0;1;1;0;0
"5379";"WI5";"BRAC1_horiAA_1st300";1;2;991,080000007059;"L";1;0;NA;"L";"blue";"black";"magnit";3;0;1;1;0;1
"5383";"WI5";"BRAC1_horiAA_1st300";1;3;1383,38999997359;"L";1;0;NA;"L";"red";"black";"parity";4;0;1;0;1;0
"5387";"WI5";"BRAC1_horiAA_1st300";1;4;1002,84999998985;"A";1;0;NA;"A";"blue";"black";"parity";1;0;0;1;1;0
"5391";"WI5";"BRAC1_horiAA_1st300";1;5;949,920000013663;"L";1;0;NA;"L";"red";"black";"parity";6;0;0;1;1;0
"5395";"WI5";"BRAC1_horiAA_1st300";1;6;1311,50499999058;"L";1;1;NA;"A";"red";"black";"parity";3;0;0;1;0;0
"5399";"WI5";"BRAC1_horiAA_1st300";1;7;851,344999973662;"A";1;0;NA;"A";"red";"black";"magnit";9;0;1;0;0;1
"5403";"WI5";"BRAC1_horiAA_1st300";1;8;1845,18500001286;"A";1;0;NA;"A";"blue";"black";"parity";3;0;1;0;1;0
"5407";"WI5";"BRAC1_horiAA_1st300";1;9;1510,569999984;"A";1;0;NA;"A";"red";"black";"parity";1;0;0;0;1;0
"5411";"WI5";"BRAC1_horiAA_1st300";1;10;969,624999997905;"L";1;0;NA;"L";"red";"black";"magnit";4;0;1;1;0;0
"5415";"WI5";"BRAC1_horiAA_1st300";1;11;1240,3049999848;"A";1;0;NA;"A";"blue";"black";"magnit";8;0;0;1;1;0
"5419";"WI5";"BRAC1_horiAA_1st300";1;12;933,644999982789;"A";1;0;NA;"A";"blue";"black";"magnit";6;0;0;0;0;0
"5423";"WI5";"BRAC1_horiAA_1st300";1;13;1083,19000000483;"A";1;0;NA;"A";"blue";"black";"parity";1;0;1;0;0;0
"5427";"WI5";"BRAC1_horiAA_1st300";1;14;1838,99499999825;"L";1;0;NA;"L";"blue";"black";"parity";4;0;0;1;0;0
"5431";"WI5";"BRAC1_horiAA_1st300";1;15;836,615000007441;"L";1;0;NA;"L";"blue";"black";"parity";2;0;0;0;0;0
"5435";"WI5";"BRAC1_horiAA_1st300";1;16;692,699999985052;"A";1;0;NA;"A";"blue";"black";"magnit";9;0;1;1;0;0
"5439";"WI5";"BRAC1_horiAA_1st300";1;17;1044,95000001043;"L";1;0;NA;"L";"red";"black";"parity";2;0;1;1;1;0
"5443";"WI5";"BRAC1_horiAA_1st300";1;18;795,589999994263;"L";1;0;NA;"L";"red";"black";"parity";8;0;0;0;0;0
"5447";"WI5";"BRAC1_horiAA_1st300";1;19;839,96000001207;"A";1;0;NA;"A";"red";"black";"parity";1;0;0;1;0;0
"5451";"WI5";"BRAC1_horiAA_1st300";1;20;1018,03500001552;"L";1;0;NA;"L";"red";"black";"parity";8;0;0;1;0;0
"5455";"WI5";"BRAC1_horiAA_1st300";1;21;709,28000001004;"A";1;0;NA;"A";"red";"black";"magnit";9;0;1;1;0;0
"5459";"WI5";"BRAC1_horiAA_1st300";1;22;999,320000002626;"L";1;0;NA;"L";"red";"black";"magnit";2;0;0;1;0;0
"5463";"WI5";"BRAC1_horiAA_1st300";1;23;809,165000013309;"A";1;0;NA;"A";"red";"black";"magnit";6;0;0;1;0;0
"5467";"WI5";"BRAC1_horiAA_1st300";1;24;828,850000019884;"L";1;0;NA;"L";"red";"black";"magnit";4;0;0;1;0;0
"5471";"WI5";"BRAC1_horiAA_1st300";1;25;927,985000016633;"A";1;0;NA;"A";"blue";"black";"parity";3;0;1;1;1;0
"5475";"WI5";"BRAC1_horiAA_1st300";1;26;674,430000013672;"A";1;0;NA;"A";"red";"black";"magnit";8;0;1;0;1;0
"5479";"WI5";"BRAC1_horiAA_1st300";1;27;2136,02999999421;"L";1;0;NA;"L";"red";"black";"parity";2;0;1;1;0;0
"5483";"WI5";"BRAC1_horiAA_1st300";1;28;2085,46999999089;"L";1;0;NA;"L";"red";"black";"parity";6;0;0;0;0;0
"5487";"WI5";"BRAC1_horiAA_1st300";1;29;920,664999983273;"L";1;0;NA;"L";"blue";"black";"magnit";2;0;1;0;1;0
"5491";"WI5";"BRAC1_horiAA_1st300";1;30;2195,84500000929;"L";1;0;NA;"L";"red";"black";"parity";8;0;1;0;1;0
"5495";"WI5";"BRAC1_horiAA_1st300";1;31;1261,84999998077;"A";1;0;NA;"A";"red";"black";"parity";7;0;0;1;0;0
"5499";"WI5";"BRAC1_horiAA_1st300";1;32;717,395000014221;"L";1;0;NA;"L";"blue";"black";"magnit";3;0;1;1;1;0
"5503";"WI5";"BRAC1_horiAA_1st300";1;33;688,109999988228;"A";1;0;NA;"A";"blue";"black";"magnit";6;0;0;1;0;0
"5507";"WI5";"BRAC1_horiAA_1st300";1;34;1333,81999999983;"A";1;0;NA;"A";"blue";"black";"parity";7;0;1;0;0;0
"5511";"WI5";"BRAC1_horiAA_1st300";1;35;1306,17500000517;"A";1;0;NA;"A";"red";"black";"parity";3;0;0;0;1;0
"5515";"WI5";"BRAC1_horiAA_1st300";1;36;690,819999988889;"A";1;0;NA;"A";"red";"black";"parity";7;0;0;0;0;0
"5519";"WI5";"BRAC1_horiAA_1st300";1;37;651,435000007041;"L";1;0;NA;"L";"blue";"black";"parity";2;0;0;1;1;0
"5523";"WI5";"BRAC1_horiAA_1st300";1;38;724,205000005895;"L";1;0;NA;"L";"red";"black";"magnit";1;0;1;0;1;0
"5527";"WI5";"BRAC1_horiAA_1st300";1;39;704,729999997653;"A";1;0;NA;"A";"blue";"black";"magnit";9;0;0;1;1;0
"5531";"WI5";"BRAC1_horiAA_1st300";1;40;698,220000020228;"L";1;0;NA;"L";"blue";"black";"magnit";2;0;0;1;0;0
"5535";"WI5";"BRAC1_horiAA_1st300";1;41;916,565000021365;"L";1;0;NA;"L";"blue";"black";"parity";6;0;1;0;0;0
"5539";"WI5";"BRAC1_horiAA_1st300";1;42;1543,89999998966;"L";1;0;NA;"L";"blue";"black";"parity";4;0;0;0;0;0
"5543";"WI5";"BRAC1_horiAA_1st300";1;43;563,59999999404;"A";1;0;NA;"A";"red";"black";"parity";9;0;0;1;1;0
"5547";"WI5";"BRAC1_horiAA_1st300";1;44;1138,65499998792;"A";1;0;NA;"A";"red";"black";"parity";3;0;0;0;0;0
"5551";"WI5";"BRAC1_horiAA_1st300";1;45;738,890000007814;"L";1;0;NA;"L";"blue";"black";"magnit";4;0;1;1;1;0
"5555";"WI5";"BRAC1_horiAA_1st300";1;46;973,939999996219;"A";1;0;NA;"A";"blue";"black";"parity";7;0;1;1;0;0
"5559";"WI5";"BRAC1_horiAA_1st300";1;47;551,995000016177;"L";1;0;NA;"L";"red";"black";"parity";4;0;0;1;1;0
"5563";"WI5";"BRAC1_horiAA_1st300";1;48;950,530000001891;"L";1;0;NA;"L";"blue";"black";"parity";6;0;0;0;1;0
"5567";"WI5";"BRAC1_horiAA_1st300";1;49;786,724999983562;"A";1;0;NA;"A";"blue";"black";"magnit";7;0;1;1;0;0
"5571";"WI5";"BRAC1_horiAA_1st300";1;50;590,159999992466;"A";1;0;NA;"A";"blue";"black";"magnit";9;0;0;0;0;0
"5575";"WI5";"BRAC1_horiAA_1st300";1;51;760,279999987688;"A";1;0;NA;"A";"blue";"black";"magnit";8;0;0;0;0;0
"5579";"WI5";"BRAC1_horiAA_1st300";1;52;617,319999990286;"A";1;0;NA;"A";"blue";"black";"magnit";7;0;0;0;0;0
"5583";"WI5";"BRAC1_horiAA_1st300";1;53;711,230000015348;"L";1;0;NA;"L";"red";"black";"magnit";3;0;0;1;1;0
"5587";"WI5";"BRAC1_horiAA_1st300";1;54;1512,02000002377;"A";1;0;NA;"A";"red";"black";"parity";7;0;1;1;0;0
"5591";"WI5";"BRAC1_horiAA_1st300";1;55;1428,97000000812;"L";1;1;NA;"A";"red";"black";"magnit";6;0;1;0;0;0
"5595";"WI5";"BRAC1_horiAA_1st300";1;56;1713,73499999754;"A";1;0;NA;"A";"red";"black";"magnit";9;0;0;0;0;1
"5599";"WI5";"BRAC1_horiAA_1st300";1;57;1146,60999999614;"A";1;0;NA;"A";"red";"black";"magnit";7;0;0;0;0;0
"5603";"WI5";"BRAC1_horiAA_1st300";1;58;874,320000002626;"A";1;0;NA;"A";"blue";"black";"parity";9;0;1;0;1;0
"5607";"WI5";"BRAC1_horiAA_1st300";1;59;901,119999994989;"L";1;0;NA;"L";"red";"black";"magnit";3;0;1;1;1;0
"5611";"WI5";"BRAC1_horiAA_1st300";1;60;1413,72500002035;"A";1;0;NA;"A";"red";"black";"parity";9;0;1;1;0;0
"5615";"WI5";"BRAC1_horiAA_1st300";1;61;1117,05000000075;"A";1;0;NA;"A";"red";"black";"magnit";8;0;1;0;0;0
"5619";"WI5";"BRAC1_horiAA_1st300";1;62;884,479999978794;"A";1;0;NA;"A";"blue";"black";"magnit";6;0;0;0;1;0
"5623";"WI5";"BRAC1_horiAA_1st300";1;63;1568,0149999971;"A";1;0;NA;"A";"red";"black";"magnit";7;0;0;0;1;0
"5627";"WI5";"BRAC1_horiAA_1st300";1;64;872,604999982286;"L";1;0;NA;"L";"red";"black";"magnit";1;0;0;1;0;0
"5631";"WI5";"BRAC1_horiAA_1st300";1;65;835,794999991776;"L";1;0;NA;"L";"red";"black";"magnit";2;0;0;0;0;0
"5635";"WI5";"BRAC1_horiAA_1st300";1;66;776,594999973895;"A";1;0;NA;"A";"blue";"black";"magnit";8;0;0;1;1;0
"5639";"WI5";"BRAC1_horiAA_1st300";1;67;1189,71000000602;"L";1;0;NA;"L";"blue";"black";"parity";2;0;1;1;0;0
"5643";"WI5";"BRAC1_horiAA_1st300";1;68;889,334999985294;"L";1;0;NA;"L";"blue";"black";"magnit";3;0;1;0;0;0
"5647";"WI5";"BRAC1_horiAA_1st300";1;69;1008,26500001131;"L";1;0;NA;"L";"red";"black";"magnit";4;0;0;0;1;0
"5651";"WI5";"BRAC1_horiAA_1st300";1;70;920,699999987846;"A";1;0;NA;"A";"blue";"black";"parity";3;0;1;1;1;0
"5655";"WI5";"BRAC1_horiAA_1st300";1;71;644,51499999268;"L";1;0;NA;"L";"blue";"black";"magnit";1;0;1;1;0;0
"5659";"WI5";"BRAC1_horiAA_1st300";1;72;1116,51000002166;"L";1;0;NA;"L";"blue";"black";"parity";4;0;1;0;0;0
"5663";"WI5";"BRAC1_horiAA_1st300";1;73;595,679999998538;"A";1;0;NA;"A";"red";"black";"magnit";6;0;1;1;1;0
"5667";"WI5";"BRAC1_horiAA_1st300";1;74;1042,26999997627;"A";1;0;NA;"A";"blue";"black";"magnit";7;0;0;0;1;0
"5671";"WI5";"BRAC1_horiAA_1st300";1;75;1249,00499999058;"L";1;0;NA;"L";"blue";"black";"parity";8;0;1;1;0;0
"5675";"WI5";"BRAC1_horiAA_1st300";1;76;727,574999997159;"L";1;0;NA;"L";"blue";"black";"magnit";4;0;1;0;0;0
"5679";"WI5";"BRAC1_horiAA_1st300";1;77;765,829999989364;"L";1;0;NA;"L";"blue";"black";"parity";8;0;1;0;0;0
"5683";"WI5";"BRAC1_horiAA_1st300";1;78;905,305000022054;"L";1;0;NA;"L";"red";"black";"magnit";1;0;1;0;1;0
"5687";"WI5";"BRAC1_horiAA_1st300";1;79;1311,87999999383;"L";1;0;NA;"L";"red";"black";"magnit";2;0;0;0;0;0
"5691";"WI5";"BRAC1_horiAA_1st300";1;80;1082,94500000193;"A";1;1;NA;"L";"red";"black";"parity";6;0;1;0;0;0
"5695";"WI5";"BRAC1_horiAA_1st300";1;81;2502,84500000009;NA;NA;1;1;"A";"blue";"black";"parity";1;0;0;1;1;1
"5699";"WI5";"BRAC1_horiAA_1st300";1;82;635,524999990594;"A";1;0;NA;"A";"red";"black";"magnit";8;0;1;0;1;1
"5703";"WI5";"BRAC1_horiAA_1st300";1;83;795,964999997523;"A";1;0;NA;"A";"blue";"black";"parity";7;0;1;0;1;0
"5707";"WI5";"BRAC1_horiAA_1st300";1;84;1593,22999999858;"L";1;0;NA;"L";"blue";"black";"parity";6;0;0;1;0;0
"5711";"WI5";"BRAC1_horiAA_1st300";1;85;776,299999997718;"L";1;0;NA;"L";"blue";"black";"magnit";1;0;1;0;0;0
"5715";"WI5";"BRAC1_horiAA_1st300";1;86;1084,2699999921;"A";1;0;NA;"A";"blue";"black";"parity";9;0;1;1;0;0
"5719";"WI5";"BRAC1_horiAA_1st300";1;87;774,715000006836;"A";1;0;NA;"A";"red";"black";"parity";1;0;0;0;1;0
"5723";"WI5";"BRAC1_horiAA_1st300";1;88;1174,34999998659;"L";1;0;NA;"L";"blue";"black";"parity";8;0;0;1;1;0
"5727";"WI5";"BRAC1_horiAA_1st300";1;89;644,054999982473;"A";1;0;NA;"A";"red";"black";"parity";9;0;0;1;1;0
"5731";"WI5";"BRAC1_horiAA_1st300";1;90;758,769999985816;"A";1;0;NA;"A";"red";"black";"magnit";7;0;1;0;0;0
"5735";"WI5";"BRAC1_horiAA_1st300";1;91;859,914999979082;"L";1;0;NA;"L";"red";"black";"parity";4;0;1;1;0;0
"5739";"WI5";"BRAC1_horiAA_1st300";1;92;771,674999996321;"L";1;0;NA;"L";"red";"black";"magnit";3;0;1;0;0;0
"5743";"WI5";"BRAC1_horiAA_1st300";1;93;1527,97999998438;"L";1;0;NA;"L";"blue";"black";"magnit";4;0;0;0;1;0
"5747";"WI5";"BRAC1_horiAA_1st300";1;94;1022,44999998948;"L";1;0;NA;"L";"red";"black";"parity";2;0;1;0;1;0
"5751";"WI5";"BRAC1_horiAA_1st300";1;95;579,194999998435;"L";1;0;NA;"L";"blue";"black";"magnit";1;0;1;0;1;0
"5756";"WI5";"BRAC1_horiAA_1st300";2;0;1251,87999999616;"L";1;0;NA;"L";"blue";"black";"parity";4;300;99;99;99;99
"5760";"WI5";"BRAC1_horiAA_1st300";2;1;696,570000000065;"A";1;0;NA;"A";"blue";"black";"magnit";9;300;1;1;0;0
"5764";"WI5";"BRAC1_horiAA_1st300";2;2;792,965000000549;"L";1;0;NA;"L";"blue";"black";"magnit";4;300;0;1;0;0
"5768";"WI5";"BRAC1_horiAA_1st300";2;3;1075,46500000171;"L";1;0;NA;"L";"red";"black";"parity";2;300;1;0;1;0
