"pp";"counterbalance";"blockNum";"trialNum";"rt";"Response";"Attempt";"error";"Timed.Out";"ANSWER";"cuecolor";"framecolor";"task";"stimulus";"cocoa";"Participant.OS";"Participant.Browser";"ppViewportSize";"task_R";"ANSWER_R";"cuecolor_R";"error_R";"age";"sex";"psyKnowledge";"education";"handedness";"motherTongue";"country"
"OY2";"BRAC1_horiAA_1st0";0;0;788,029999999941;"L";1;0;NA;"L";"red";"black";"magnit";3;0;"Windows";"Chrome";"1280x610";99;99;99;99;"28";"female";"I've a degree related to one of these fields.";"Master degree";"right-handed";"German";"Germany"
"OY2";"BRAC1_horiAA_1st0";0;1;544,689999999944;"L";1;0;NA;"L";"blue";"black";"magnit";1;0;"Windows";"Chrome";"1280x610";0;0;1;0;"28";"female";"I've a degree related to one of these fields.";"Master degree";"right-handed";"German";"Germany"
"OY2";"BRAC1_horiAA_1st0";0;2;925,204999999987;"L";1;0;NA;"L";"blue";"black";"parity";8;0;"Windows";"Chrome";"1280x610";1;0;0;0;"28";"female";"I've a degree related to one of these fields.";"Master degree";"right-handed";"German";"Germany"
"OY2";"BRAC1_horiAA_1st0";0;3;604,444999999949;"A";1;0;NA;"A";"red";"black";"parity";1;0;"Windows";"Chrome";"1280x610";0;1;1;0;"28";"female";"I've a degree related to one of these fields.";"Master degree";"right-handed";"German";"Germany"
"OY2";"BRAC1_horiAA_1st0";0;4;575,330000000104;"L";1;0;NA;"L";"blue";"black";"parity";8;0;"Windows";"Chrome";"1280x610";0;1;1;0;"28";"female";"I've a degree related to one of these fields.";"Master degree";"right-handed";"German";"Germany"
"OY2";"BRAC1_horiAA_1st0";0;5;524,175000000017;"L";1;0;NA;"L";"blue";"black";"parity";2;0;"Windows";"Chrome";"1280x610";0;0;0;0;"28";"female";"I've a degree related to one of these fields.";"Master degree";"right-handed";"German";"Germany"
"OY2";"BRAC1_horiAA_1st0";0;6;705,590000000026;"A";1;0;NA;"A";"blue";"black";"magnit";9;0;"Windows";"Chrome";"1280x610";1;1;0;0;"28";"female";"I've a degree related to one of these fields.";"Master degree";"right-handed";"German";"Germany"
"OY2";"BRAC1_horiAA_1st0";0;7;653,684999999998;"A";1;0;NA;"A";"red";"black";"magnit";8;0;"Windows";"Chrome";"1280x610";0;0;1;0;"28";"female";"I've a degree related to one of these fields.";"Master degree";"right-handed";"German";"Germany"
"OY2";"BRAC1_horiAA_1st0";0;8;838,130000000121;"L";1;0;NA;"L";"red";"black";"magnit";4;0;"Windows";"Chrome";"1280x610";0;1;0;0;"28";"female";"I've a degree related to one of these fields.";"Master degree";"right-handed";"German";"Germany"
"OY2";"BRAC1_horiAA_1st0";0;9;539,459999999963;"A";1;0;NA;"A";"red";"black";"magnit";8;0;"Windows";"Chrome";"1280x610";0;1;0;0;"28";"female";"I've a degree related to one of these fields.";"Master degree";"right-handed";"German";"Germany"
"OY2";"BRAC1_horiAA_1st0";0;10;456,115000000165;"L";1;0;NA;"L";"blue";"black";"magnit";2;0;"Windows";"Chrome";"1280x610";0;1;1;0;"28";"female";"I've a degree related to one of these fields.";"Master degree";"right-handed";"German";"Germany"
"OY2";"BRAC1_horiAA_1st0";0;11;843,395000000106;"A";1;0;NA;"A";"blue";"black";"parity";9;0;"Windows";"Chrome";"1280x610";1;1;0;0;"28";"female";"I've a degree related to one of these fields.";"Master degree";"right-handed";"German";"Germany"
"OY2";"BRAC1_horiAA_1st0";0;12;474,970000000001;"L";1;0;NA;"L";"blue";"black";"magnit";2;0;"Windows";"Chrome";"1280x610";1;1;0;0;"28";"female";"I've a degree related to one of these fields.";"Master degree";"right-handed";"German";"Germany"
"OY2";"BRAC1_horiAA_1st0";0;13;872,509999999922;"A";1;0;NA;"A";"red";"black";"magnit";9;0;"Windows";"Chrome";"1280x610";0;1;1;0;"28";"female";"I've a degree related to one of these fields.";"Master degree";"right-handed";"German";"Germany"
"OY2";"BRAC1_horiAA_1st0";0;14;795,075000000012;"L";1;1;NA;"A";"red";"black";"parity";3;0;"Windows";"Chrome";"1280x610";1;0;0;0;"28";"female";"I've a degree related to one of these fields.";"Master degree";"right-handed";"German";"Germany"
"OY2";"BRAC1_horiAA_1st0";0;15;687,89000000013;"A";1;0;NA;"A";"red";"black";"magnit";8;0;"Windows";"Chrome";"1280x610";1;0;0;1;"28";"female";"I've a degree related to one of these fields.";"Master degree";"right-handed";"German";"Germany"
"OY2";"BRAC1_horiAA_1st0";0;16;732,854999999981;"L";1;0;NA;"L";"blue";"black";"parity";2;0;"Windows";"Chrome";"1280x610";1;1;1;0;"28";"female";"I've a degree related to one of these fields.";"Master degree";"right-handed";"German";"Germany"
"OY2";"BRAC1_horiAA_1st0";0;17;1125,78000000009;"A";1;0;NA;"A";"blue";"black";"magnit";7;0;"Windows";"Chrome";"1280x610";1;1;0;0;"28";"female";"I've a degree related to one of these fields.";"Master degree";"right-handed";"German";"Germany"
"OY2";"BRAC1_horiAA_1st0";0;18;511,310000000085;"L";1;0;NA;"L";"red";"black";"magnit";2;0;"Windows";"Chrome";"1280x610";0;1;1;0;"28";"female";"I've a degree related to one of these fields.";"Master degree";"right-handed";"German";"Germany"
"OY2";"BRAC1_horiAA_1st0";0;19;583,069999999891;"L";1;0;NA;"L";"blue";"black";"magnit";4;0;"Windows";"Chrome";"1280x610";0;0;1;0;"28";"female";"I've a degree related to one of these fields.";"Master degree";"right-handed";"German";"Germany"
"OY2";"BRAC1_horiAA_1st0";0;20;775,415000000066;"A";1;0;NA;"A";"blue";"black";"magnit";6;0;"Windows";"Chrome";"1280x610";0;1;0;0;"28";"female";"I've a degree related to one of these fields.";"Master degree";"right-handed";"German";"Germany"
"OY2";"BRAC1_horiAA_1st0";0;21;682,16499999995;"A";1;0;NA;"A";"blue";"black";"parity";3;0;"Windows";"Chrome";"1280x610";1;0;0;0;"28";"female";"I've a degree related to one of these fields.";"Master degree";"right-handed";"German";"Germany"
"OY2";"BRAC1_horiAA_1st0";0;22;504,320000000007;"A";1;0;NA;"A";"red";"black";"parity";7;0;"Windows";"Chrome";"1280x610";0;0;1;0;"28";"female";"I've a degree related to one of these fields.";"Master degree";"right-handed";"German";"Germany"
"OY2";"BRAC1_horiAA_1st0";0;23;539,694999999949;"A";1;0;NA;"A";"red";"black";"parity";9;0;"Windows";"Chrome";"1280x610";0;0;0;0;"28";"female";"I've a degree related to one of these fields.";"Master degree";"right-handed";"German";"Germany"
"OY2";"BRAC1_horiAA_1st0";0;24;644,964999999967;"A";1;0;NA;"A";"blue";"black";"magnit";7;0;"Windows";"Chrome";"1280x610";1;0;1;0;"28";"female";"I've a degree related to one of these fields.";"Master degree";"right-handed";"German";"Germany"
"OY2";"BRAC1_horiAA_1st0";0;25;453,089999999967;"L";1;0;NA;"L";"red";"black";"parity";4;0;"Windows";"Chrome";"1280x610";1;1;1;0;"28";"female";"I've a degree related to one of these fields.";"Master degree";"right-handed";"German";"Germany"
"OY2";"BRAC1_horiAA_1st0";0;26;483,559999999881;"A";1;0;NA;"A";"red";"black";"parity";7;0;"Windows";"Chrome";"1280x610";0;1;0;0;"28";"female";"I've a degree related to one of these fields.";"Master degree";"right-handed";"German";"Germany"
"OY2";"BRAC1_horiAA_1st0";0;27;545,924999999872;"L";1;0;NA;"L";"red";"black";"parity";6;0;"Windows";"Chrome";"1280x610";0;1;0;0;"28";"female";"I've a degree related to one of these fields.";"Master degree";"right-handed";"German";"Germany"
"OY2";"BRAC1_horiAA_1st0";0;28;912,845000000059;"A";1;0;NA;"A";"red";"black";"parity";1;0;"Windows";"Chrome";"1280x610";0;1;0;0;"28";"female";"I've a degree related to one of these fields.";"Master degree";"right-handed";"German";"Germany"
"OY2";"BRAC1_horiAA_1st0";0;29;565,045000000042;"A";1;0;NA;"A";"blue";"black";"parity";9;0;"Windows";"Chrome";"1280x610";0;0;1;0;"28";"female";"I've a degree related to one of these fields.";"Master degree";"right-handed";"German";"Germany"
"OY2";"BRAC1_horiAA_1st0";0;30;452,950000000099;"L";1;0;NA;"L";"red";"black";"parity";2;0;"Windows";"Chrome";"1280x610";0;1;1;0;"28";"female";"I've a degree related to one of these fields.";"Master degree";"right-handed";"German";"Germany"
"OY2";"BRAC1_horiAA_1st0";0;31;616,520000000048;"A";1;0;NA;"A";"blue";"black";"parity";1;0;"Windows";"Chrome";"1280x610";0;1;1;0;"28";"female";"I've a degree related to one of these fields.";"Master degree";"right-handed";"German";"Germany"
"OY2";"BRAC1_horiAA_1st0";0;32;562,554999999964;"A";1;0;NA;"A";"red";"black";"magnit";7;0;"Windows";"Chrome";"1280x610";1;0;1;0;"28";"female";"I've a degree related to one of these fields.";"Master degree";"right-handed";"German";"Germany"
"OY2";"BRAC1_horiAA_1st0";0;33;466,574999999924;"L";1;0;NA;"L";"blue";"black";"magnit";4;0;"Windows";"Chrome";"1280x610";0;1;1;0;"28";"female";"I've a degree related to one of these fields.";"Master degree";"right-handed";"German";"Germany"
"OY2";"BRAC1_horiAA_1st0";0;34;474,124999999971;"L";1;0;NA;"L";"blue";"black";"magnit";1;0;"Windows";"Chrome";"1280x610";0;0;0;0;"28";"female";"I've a degree related to one of these fields.";"Master degree";"right-handed";"German";"Germany"
"OY2";"BRAC1_horiAA_1st0";0;35;578,184999999852;"L";1;0;NA;"L";"blue";"black";"parity";4;0;"Windows";"Chrome";"1280x610";1;0;0;0;"28";"female";"I've a degree related to one of these fields.";"Master degree";"right-handed";"German";"Germany"
"OY2";"BRAC1_horiAA_1st0";0;36;428,574999999895;"L";1;0;NA;"L";"blue";"black";"magnit";3;0;"Windows";"Chrome";"1280x610";1;0;0;0;"28";"female";"I've a degree related to one of these fields.";"Master degree";"right-handed";"German";"Germany"
"OY2";"BRAC1_horiAA_1st0";0;37;1788,16499999992;"L";1;0;NA;"L";"red";"black";"parity";8;0;"Windows";"Chrome";"1280x610";1;0;1;0;"28";"female";"I've a degree related to one of these fields.";"Master degree";"right-handed";"German";"Germany"
"OY2";"BRAC1_horiAA_1st0";0;38;632,235000000044;"A";1;0;NA;"A";"red";"black";"parity";1;0;"Windows";"Chrome";"1280x610";0;1;0;0;"28";"female";"I've a degree related to one of these fields.";"Master degree";"right-handed";"German";"Germany"
"OY2";"BRAC1_horiAA_1st0";0;39;983,549999999901;"L";1;0;NA;"L";"blue";"black";"parity";6;0;"Windows";"Chrome";"1280x610";0;1;1;0;"28";"female";"I've a degree related to one of these fields.";"Master degree";"right-handed";"German";"Germany"
"OY2";"BRAC1_horiAA_1st0";0;40;523,774999999878;"A";1;0;NA;"A";"red";"black";"parity";7;0;"Windows";"Chrome";"1280x610";0;1;1;0;"28";"female";"I've a degree related to one of these fields.";"Master degree";"right-handed";"German";"Germany"
"OY2";"BRAC1_horiAA_1st0";0;41;504,879999999946;"L";1;0;NA;"L";"red";"black";"magnit";1;0;"Windows";"Chrome";"1280x610";1;1;0;0;"28";"female";"I've a degree related to one of these fields.";"Master degree";"right-handed";"German";"Germany"
"OY2";"BRAC1_horiAA_1st0";0;42;485,304999999935;"A";1;0;NA;"A";"red";"black";"parity";9;0;"Windows";"Chrome";"1280x610";1;1;0;0;"28";"female";"I've a degree related to one of these fields.";"Master degree";"right-handed";"German";"Germany"
"OY2";"BRAC1_horiAA_1st0";0;43;473,504999999946;"L";1;0;NA;"L";"blue";"black";"magnit";3;0;"Windows";"Chrome";"1280x610";1;1;1;0;"28";"female";"I've a degree related to one of these fields.";"Master degree";"right-handed";"German";"Germany"
"OY2";"BRAC1_horiAA_1st0";0;44;584,939999999944;"A";1;0;NA;"A";"blue";"black";"parity";1;0;"Windows";"Chrome";"1280x610";1;1;0;0;"28";"female";"I've a degree related to one of these fields.";"Master degree";"right-handed";"German";"Germany"
"OY2";"BRAC1_horiAA_1st0";0;45;441,470000000205;"A";1;0;NA;"A";"blue";"black";"parity";7;0;"Windows";"Chrome";"1280x610";0;0;0;0;"28";"female";"I've a degree related to one of these fields.";"Master degree";"right-handed";"German";"Germany"
"OY2";"BRAC1_horiAA_1st0";0;46;680,830000000016;"A";1;0;NA;"A";"blue";"black";"magnit";6;0;"Windows";"Chrome";"1280x610";1;0;0;0;"28";"female";"I've a degree related to one of these fields.";"Master degree";"right-handed";"German";"Germany"
"OY2";"BRAC1_horiAA_1st0";0;47;427,599999999977;"L";1;0;NA;"L";"blue";"black";"magnit";2;0;"Windows";"Chrome";"1280x610";0;1;0;0;"28";"female";"I've a degree related to one of these fields.";"Master degree";"right-handed";"German";"Germany"
"OY2";"BRAC1_horiAA_1st0";0;48;475,325000000128;"L";1;0;NA;"L";"red";"black";"magnit";4;0;"Windows";"Chrome";"1280x610";0;0;1;0;"28";"female";"I've a degree related to one of these fields.";"Master degree";"right-handed";"German";"Germany"
"OY2";"BRAC1_horiAA_1st0";0;49;490,909999999974;"A";1;0;NA;"A";"red";"black";"magnit";6;0;"Windows";"Chrome";"1280x610";0;1;0;0;"28";"female";"I've a degree related to one of these fields.";"Master degree";"right-handed";"German";"Germany"
"OY2";"BRAC1_horiAA_1st0";0;50;450,604999999981;"A";1;0;NA;"A";"blue";"black";"parity";7;0;"Windows";"Chrome";"1280x610";1;0;1;0;"28";"female";"I've a degree related to one of these fields.";"Master degree";"right-handed";"German";"Germany"
"OY2";"BRAC1_horiAA_1st0";0;51;558,864999999991;"L";1;0;NA;"L";"blue";"black";"parity";4;0;"Windows";"Chrome";"1280x610";0;1;0;0;"28";"female";"I've a degree related to one of these fields.";"Master degree";"right-handed";"German";"Germany"
"OY2";"BRAC1_horiAA_1st0";0;52;610,179999999935;"L";1;0;NA;"L";"red";"black";"parity";6;0;"Windows";"Chrome";"1280x610";0;0;1;0;"28";"female";"I've a degree related to one of these fields.";"Master degree";"right-handed";"German";"Germany"
"OY2";"BRAC1_horiAA_1st0";0;53;1137,50000000006;"A";1;0;NA;"A";"red";"black";"magnit";7;0;"Windows";"Chrome";"1280x610";1;1;0;0;"28";"female";"I've a degree related to one of these fields.";"Master degree";"right-handed";"German";"Germany"
"OY2";"BRAC1_horiAA_1st0";0;54;441,684999999998;"L";1;0;NA;"L";"blue";"black";"magnit";3;0;"Windows";"Chrome";"1280x610";0;1;1;0;"28";"female";"I've a degree related to one of these fields.";"Master degree";"right-handed";"German";"Germany"
"OY2";"BRAC1_horiAA_1st0";0;55;738,705000000016;"L";1;0;NA;"L";"red";"black";"parity";8;0;"Windows";"Chrome";"1280x610";1;0;1;0;"28";"female";"I've a degree related to one of these fields.";"Master degree";"right-handed";"German";"Germany"
"OY2";"BRAC1_horiAA_1st0";0;56;484,590000000026;"L";1;0;NA;"L";"red";"black";"magnit";2;0;"Windows";"Chrome";"1280x610";1;0;0;0;"28";"female";"I've a degree related to one of these fields.";"Master degree";"right-handed";"German";"Germany"
"OY2";"BRAC1_horiAA_1st0";0;57;535,604999999981;"L";1;0;NA;"L";"red";"black";"parity";4;0;"Windows";"Chrome";"1280x610";1;0;0;0;"28";"female";"I've a degree related to one of these fields.";"Master degree";"right-handed";"German";"Germany"
"OY2";"BRAC1_horiAA_1st0";0;58;489,624999999942;"A";1;0;NA;"A";"blue";"black";"magnit";6;0;"Windows";"Chrome";"1280x610";1;1;1;0;"28";"female";"I've a degree related to one of these fields.";"Master degree";"right-handed";"German";"Germany"
"OY2";"BRAC1_horiAA_1st0";0;59;502,125;"L";1;0;NA;"L";"blue";"black";"parity";8;0;"Windows";"Chrome";"1280x610";1;1;0;0;"28";"female";"I've a degree related to one of these fields.";"Master degree";"right-handed";"German";"Germany"
"OY2";"BRAC1_horiAA_1st0";0;60;529,819999999949;"A";1;0;NA;"A";"red";"black";"parity";9;0;"Windows";"Chrome";"1280x610";0;1;1;0;"28";"female";"I've a degree related to one of these fields.";"Master degree";"right-handed";"German";"Germany"
"OY2";"BRAC1_horiAA_1st0";0;61;513,194999999949;"L";1;0;NA;"L";"red";"black";"magnit";4;0;"Windows";"Chrome";"1280x610";1;1;0;0;"28";"female";"I've a degree related to one of these fields.";"Master degree";"right-handed";"German";"Germany"
"OY2";"BRAC1_horiAA_1st0";0;62;418,855000000098;"L";1;0;NA;"L";"red";"black";"magnit";2;0;"Windows";"Chrome";"1280x610";0;0;0;0;"28";"female";"I've a degree related to one of these fields.";"Master degree";"right-handed";"German";"Germany"
"OY2";"BRAC1_horiAA_1st0";0;63;498,544999999925;"L";1;0;NA;"L";"red";"black";"parity";6;0;"Windows";"Chrome";"1280x610";1;0;0;0;"28";"female";"I've a degree related to one of these fields.";"Master degree";"right-handed";"German";"Germany"
"OY2";"BRAC1_horiAA_1st0";0;64;965,245000000112;"L";1;0;NA;"L";"red";"black";"parity";2;0;"Windows";"Chrome";"1280x610";0;0;0;0;"28";"female";"I've a degree related to one of these fields.";"Master degree";"right-handed";"German";"Germany"
"OY2";"BRAC1_horiAA_1st0";0;65;534,120000000054;"L";1;0;NA;"L";"red";"black";"magnit";1;0;"Windows";"Chrome";"1280x610";1;0;0;0;"28";"female";"I've a degree related to one of these fields.";"Master degree";"right-handed";"German";"Germany"
"OY2";"BRAC1_horiAA_1st0";0;66;524,899999999907;"L";1;0;NA;"L";"red";"black";"magnit";3;0;"Windows";"Chrome";"1280x610";0;0;0;0;"28";"female";"I've a degree related to one of these fields.";"Master degree";"right-handed";"German";"Germany"
"OY2";"BRAC1_horiAA_1st0";0;67;519,219999999914;"A";1;0;NA;"A";"blue";"black";"parity";9;0;"Windows";"Chrome";"1280x610";1;1;1;0;"28";"female";"I've a degree related to one of these fields.";"Master degree";"right-handed";"German";"Germany"
"OY2";"BRAC1_horiAA_1st0";0;68;566,294999999867;"L";1;0;NA;"L";"red";"black";"parity";8;0;"Windows";"Chrome";"1280x610";0;1;1;0;"28";"female";"I've a degree related to one of these fields.";"Master degree";"right-handed";"German";"Germany"
"OY2";"BRAC1_horiAA_1st0";0;69;560,334999999905;"L";1;0;NA;"L";"blue";"black";"parity";6;0;"Windows";"Chrome";"1280x610";0;0;1;0;"28";"female";"I've a degree related to one of these fields.";"Master degree";"right-handed";"German";"Germany"
"OY2";"BRAC1_horiAA_1st0";0;70;518,940000000119;"A";1;0;NA;"A";"red";"black";"magnit";9;0;"Windows";"Chrome";"1280x610";1;1;1;0;"28";"female";"I've a degree related to one of these fields.";"Master degree";"right-handed";"German";"Germany"
"OY2";"BRAC1_horiAA_1st0";0;71;536,640000000014;"L";1;0;NA;"L";"blue";"black";"parity";4;0;"Windows";"Chrome";"1280x610";1;1;1;0;"28";"female";"I've a degree related to one of these fields.";"Master degree";"right-handed";"German";"Germany"
"OY2";"BRAC1_horiAA_1st0";0;72;558,585000000021;"A";1;0;NA;"A";"blue";"black";"magnit";9;0;"Windows";"Chrome";"1280x610";1;1;0;0;"28";"female";"I've a degree related to one of these fields.";"Master degree";"right-handed";"German";"Germany"
"OY2";"BRAC1_horiAA_1st0";0;73;484,629999999946;"A";1;0;NA;"A";"red";"black";"magnit";7;0;"Windows";"Chrome";"1280x610";0;0;1;0;"28";"female";"I've a degree related to one of these fields.";"Master degree";"right-handed";"German";"Germany"
"OY2";"BRAC1_horiAA_1st0";0;74;478,350000000093;"A";1;0;NA;"A";"blue";"black";"magnit";8;0;"Windows";"Chrome";"1280x610";0;0;1;0;"28";"female";"I've a degree related to one of these fields.";"Master degree";"right-handed";"German";"Germany"
"OY2";"BRAC1_horiAA_1st0";0;75;548,874999999942;"A";1;0;NA;"A";"blue";"black";"parity";3;0;"Windows";"Chrome";"1280x610";1;0;0;0;"28";"female";"I've a degree related to one of these fields.";"Master degree";"right-handed";"German";"Germany"
"OY2";"BRAC1_horiAA_1st0";0;76;490,945000000007;"A";1;0;NA;"A";"blue";"black";"magnit";8;0;"Windows";"Chrome";"1280x610";1;0;0;0;"28";"female";"I've a degree related to one of these fields.";"Master degree";"right-handed";"German";"Germany"
"OY2";"BRAC1_horiAA_1st0";0;77;589,144999999902;"A";1;0;NA;"A";"red";"black";"parity";3;0;"Windows";"Chrome";"1280x610";1;0;1;0;"28";"female";"I've a degree related to one of these fields.";"Master degree";"right-handed";"German";"Germany"
"OY2";"BRAC1_horiAA_1st0";0;78;379,370000000112;"L";1;0;NA;"L";"blue";"black";"magnit";4;0;"Windows";"Chrome";"1280x610";1;1;1;0;"28";"female";"I've a degree related to one of these fields.";"Master degree";"right-handed";"German";"Germany"
"OY2";"BRAC1_horiAA_1st0";0;79;572,004999999946;"L";1;1;NA;"A";"red";"black";"magnit";6;0;"Windows";"Chrome";"1280x610";0;1;1;0;"28";"female";"I've a degree related to one of these fields.";"Master degree";"right-handed";"German";"Germany"
"OY2";"BRAC1_horiAA_1st0";0;80;1751,02000000014;"A";1;0;NA;"A";"blue";"black";"magnit";9;0;"Windows";"Chrome";"1280x610";0;0;1;1;"28";"female";"I've a degree related to one of these fields.";"Master degree";"right-handed";"German";"Germany"
"OY2";"BRAC1_horiAA_1st0";0;81;558,749999999942;"L";1;0;NA;"L";"blue";"black";"parity";6;0;"Windows";"Chrome";"1280x610";1;1;0;0;"28";"female";"I've a degree related to one of these fields.";"Master degree";"right-handed";"German";"Germany"
"OY2";"BRAC1_horiAA_1st0";0;82;531,285000000033;"L";1;0;NA;"L";"blue";"black";"magnit";1;0;"Windows";"Chrome";"1280x610";1;0;0;0;"28";"female";"I've a degree related to one of these fields.";"Master degree";"right-handed";"German";"Germany"
"OY2";"BRAC1_horiAA_1st0";0;83;572,050000000221;"L";1;0;NA;"L";"red";"black";"parity";4;0;"Windows";"Chrome";"1280x610";1;0;1;0;"28";"female";"I've a degree related to one of these fields.";"Master degree";"right-handed";"German";"Germany"
"OY2";"BRAC1_horiAA_1st0";0;84;586,510000000068;"L";1;0;NA;"L";"red";"black";"parity";2;0;"Windows";"Chrome";"1280x610";0;0;0;0;"28";"female";"I've a degree related to one of these fields.";"Master degree";"right-handed";"German";"Germany"
"OY2";"BRAC1_horiAA_1st0";0;85;533,35500000004;"A";1;0;NA;"A";"blue";"black";"magnit";7;0;"Windows";"Chrome";"1280x610";1;1;1;0;"28";"female";"I've a degree related to one of these fields.";"Master degree";"right-handed";"German";"Germany"
"OY2";"BRAC1_horiAA_1st0";0;86;472,375000000058;"A";1;0;NA;"A";"blue";"black";"magnit";8;0;"Windows";"Chrome";"1280x610";0;0;0;0;"28";"female";"I've a degree related to one of these fields.";"Master degree";"right-handed";"German";"Germany"
"OY2";"BRAC1_horiAA_1st0";0;87;722,809999999939;"A";1;0;NA;"A";"red";"black";"parity";3;0;"Windows";"Chrome";"1280x610";1;0;1;0;"28";"female";"I've a degree related to one of these fields.";"Master degree";"right-handed";"German";"Germany"
"OY2";"BRAC1_horiAA_1st0";0;88;484,084999999846;"A";1;0;NA;"A";"red";"black";"magnit";6;0;"Windows";"Chrome";"1280x610";1;0;0;0;"28";"female";"I've a degree related to one of these fields.";"Master degree";"right-handed";"German";"Germany"
"OY2";"BRAC1_horiAA_1st0";0;89;800,509999999835;"A";1;0;NA;"A";"blue";"black";"parity";3;0;"Windows";"Chrome";"1280x610";1;0;1;0;"28";"female";"I've a degree related to one of these fields.";"Master degree";"right-handed";"German";"Germany"
"OY2";"BRAC1_horiAA_1st0";0;90;415,449999999953;"A";1;0;NA;"A";"blue";"black";"parity";7;0;"Windows";"Chrome";"1280x610";0;0;0;0;"28";"female";"I've a degree related to one of these fields.";"Master degree";"right-handed";"German";"Germany"
"OY2";"BRAC1_horiAA_1st0";0;91;543,419999999984;"A";1;0;NA;"A";"blue";"black";"parity";1;0;"Windows";"Chrome";"1280x610";0;0;0;0;"28";"female";"I've a degree related to one of these fields.";"Master degree";"right-handed";"German";"Germany"
"OY2";"BRAC1_horiAA_1st0";0;92;503,2150000002;"A";1;0;NA;"A";"red";"black";"magnit";9;0;"Windows";"Chrome";"1280x610";1;0;1;0;"28";"female";"I've a degree related to one of these fields.";"Master degree";"right-handed";"German";"Germany"
"OY2";"BRAC1_horiAA_1st0";0;93;493,234999999928;"L";1;0;NA;"L";"red";"black";"magnit";3;0;"Windows";"Chrome";"1280x610";0;1;0;0;"28";"female";"I've a degree related to one of these fields.";"Master degree";"right-handed";"German";"Germany"
"OY2";"BRAC1_horiAA_1st0";0;94;474,369999999937;"L";1;0;NA;"L";"red";"black";"magnit";1;0;"Windows";"Chrome";"1280x610";0;0;0;0;"28";"female";"I've a degree related to one of these fields.";"Master degree";"right-handed";"German";"Germany"
"OY2";"BRAC1_horiAA_1st0";0;95;562,289999999804;"L";1;0;NA;"L";"blue";"black";"parity";2;0;"Windows";"Chrome";"1280x610";1;0;1;0;"28";"female";"I've a degree related to one of these fields.";"Master degree";"right-handed";"German";"Germany"
"OY2";"BRAC1_horiAA_1st0";1;0;457,519999999902;"A";1;0;NA;"A";"red";"black";"magnit";8;300;"Windows";"Chrome";"1280x610";99;99;99;99;"28";"female";"I've a degree related to one of these fields.";"Master degree";"right-handed";"German";"Germany"
"OY2";"BRAC1_horiAA_1st0";1;1;467,939999999944;"L";1;0;NA;"L";"red";"black";"parity";2;300;"Windows";"Chrome";"1280x610";1;1;0;0;"28";"female";"I've a degree related to one of these fields.";"Master degree";"right-handed";"German";"Germany"
"OY2";"BRAC1_horiAA_1st0";1;2;413,649999999965;"L";1;0;NA;"L";"red";"black";"magnit";4;300;"Windows";"Chrome";"1280x610";1;0;0;0;"28";"female";"I've a degree related to one of these fields.";"Master degree";"right-handed";"German";"Germany"
"OY2";"BRAC1_horiAA_1st0";1;3;407,944999999949;"L";1;0;NA;"L";"blue";"black";"parity";8;300;"Windows";"Chrome";"1280x610";1;0;1;0;"28";"female";"I've a degree related to one of these fields.";"Master degree";"right-handed";"German";"Germany"
"OY2";"BRAC1_horiAA_1st0";1;4;385,864999999991;"L";1;0;NA;"L";"blue";"black";"magnit";3;300;"Windows";"Chrome";"1280x610";1;0;0;0;"28";"female";"I've a degree related to one of these fields.";"Master degree";"right-handed";"German";"Germany"
"OY2";"BRAC1_horiAA_1st0";1;5;465,699999999953;"A";1;0;NA;"A";"red";"black";"magnit";6;300;"Windows";"Chrome";"1280x610";0;1;1;0;"28";"female";"I've a degree related to one of these fields.";"Master degree";"right-handed";"German";"Germany"
"OY2";"BRAC1_horiAA_1st0";1;6;473,199999999895;"A";1;0;NA;"A";"red";"black";"magnit";8;300;"Windows";"Chrome";"1280x610";0;0;0;0;"28";"female";"I've a degree related to one of these fields.";"Master degree";"right-handed";"German";"Germany"
"OY2";"BRAC1_horiAA_1st0";1;7;487,294999999867;"A";1;0;NA;"A";"blue";"black";"magnit";9;300;"Windows";"Chrome";"1280x610";0;0;1;0;"28";"female";"I've a degree related to one of these fields.";"Master degree";"right-handed";"German";"Germany"
"OY2";"BRAC1_horiAA_1st0";1;8;436,709999999963;"L";1;0;NA;"L";"red";"black";"magnit";4;300;"Windows";"Chrome";"1280x610";0;1;1;0;"28";"female";"I've a degree related to one of these fields.";"Master degree";"right-handed";"German";"Germany"
"OY2";"BRAC1_horiAA_1st0";1;9;414,090000000026;"L";1;0;NA;"L";"red";"black";"magnit";2;300;"Windows";"Chrome";"1280x610";0;0;0;0;"28";"female";"I've a degree related to one of these fields.";"Master degree";"right-handed";"German";"Germany"
"OY2";"BRAC1_horiAA_1st0";1;10;400,390000000014;"A";1;0;NA;"A";"blue";"black";"magnit";8;300;"Windows";"Chrome";"1280x610";0;1;1;0;"28";"female";"I've a degree related to one of these fields.";"Master degree";"right-handed";"German";"Germany"
"OY2";"BRAC1_horiAA_1st0";1;11;497,835000000137;"L";1;0;NA;"L";"blue";"black";"parity";6;300;"Windows";"Chrome";"1280x610";1;1;0;0;"28";"female";"I've a degree related to one of these fields.";"Master degree";"right-handed";"German";"Germany"
"OY2";"BRAC1_horiAA_1st0";1;12;455,460000000137;"A";1;0;NA;"A";"red";"black";"magnit";7;300;"Windows";"Chrome";"1280x610";1;1;1;0;"28";"female";"I've a degree related to one of these fields.";"Master degree";"right-handed";"German";"Germany"
"OY2";"BRAC1_horiAA_1st0";1;13;478,279999999795;"L";1;0;NA;"L";"blue";"black";"parity";4;300;"Windows";"Chrome";"1280x610";1;1;1;0;"28";"female";"I've a degree related to one of these fields.";"Master degree";"right-handed";"German";"Germany"
"OY2";"BRAC1_horiAA_1st0";1;14;358,909999999916;"L";1;0;NA;"L";"blue";"black";"magnit";2;300;"Windows";"Chrome";"1280x610";1;0;0;0;"28";"female";"I've a degree related to one of these fields.";"Master degree";"right-handed";"German";"Germany"
"OY2";"BRAC1_horiAA_1st0";1;15;553,144999999844;"A";1;0;NA;"A";"red";"black";"magnit";6;300;"Windows";"Chrome";"1280x610";0;1;1;0;"28";"female";"I've a degree related to one of these fields.";"Master degree";"right-handed";"German";"Germany"
"OY2";"BRAC1_horiAA_1st0";1;16;414,389999999898;"A";1;0;NA;"A";"blue";"black";"parity";7;300;"Windows";"Chrome";"1280x610";1;0;1;0;"28";"female";"I've a degree related to one of these fields.";"Master degree";"right-handed";"German";"Germany"
"OY2";"BRAC1_horiAA_1st0";1;17;474,345000000088;"L";1;0;NA;"L";"blue";"black";"parity";2;300;"Windows";"Chrome";"1280x610";0;1;0;0;"28";"female";"I've a degree related to one of these fields.";"Master degree";"right-handed";"German";"Germany"
"OY2";"BRAC1_horiAA_1st0";1;18;539,465000000084;"A";1;0;NA;"A";"blue";"black";"magnit";6;300;"Windows";"Chrome";"1280x610";1;1;0;0;"28";"female";"I've a degree related to one of these fields.";"Master degree";"right-handed";"German";"Germany"
"OY2";"BRAC1_horiAA_1st0";1;19;452,699999999837;"L";1;0;NA;"L";"blue";"black";"magnit";3;300;"Windows";"Chrome";"1280x610";0;1;0;0;"28";"female";"I've a degree related to one of these fields.";"Master degree";"right-handed";"German";"Germany"
"OY2";"BRAC1_horiAA_1st0";1;20;426,280000000086;"A";1;0;NA;"A";"blue";"black";"magnit";8;300;"Windows";"Chrome";"1280x610";0;1;0;0;"28";"female";"I've a degree related to one of these fields.";"Master degree";"right-handed";"German";"Germany"
"OY2";"BRAC1_horiAA_1st0";1;21;436,740000000107;"L";1;0;NA;"L";"blue";"black";"parity";4;300;"Windows";"Chrome";"1280x610";1;1;0;0;"28";"female";"I've a degree related to one of these fields.";"Master degree";"right-handed";"German";"Germany"
"OY2";"BRAC1_horiAA_1st0";1;22;469,274999999907;"L";1;0;NA;"L";"red";"black";"parity";2;300;"Windows";"Chrome";"1280x610";0;0;1;0;"28";"female";"I've a degree related to one of these fields.";"Master degree";"right-handed";"German";"Germany"
"OY2";"BRAC1_horiAA_1st0";1;23;435,27999999997;"A";1;0;NA;"A";"blue";"black";"parity";1;300;"Windows";"Chrome";"1280x610";0;1;1;0;"28";"female";"I've a degree related to one of these fields.";"Master degree";"right-handed";"German";"Germany"
"OY2";"BRAC1_horiAA_1st0";1;24;509,759999999893;"A";1;0;NA;"A";"blue";"black";"parity";3;300;"Windows";"Chrome";"1280x610";0;0;0;0;"28";"female";"I've a degree related to one of these fields.";"Master degree";"right-handed";"German";"Germany"
"OY2";"BRAC1_horiAA_1st0";1;25;450,445000000182;"A";1;0;NA;"A";"blue";"black";"magnit";6;300;"Windows";"Chrome";"1280x610";1;0;0;0;"28";"female";"I've a degree related to one of these fields.";"Master degree";"right-handed";"German";"Germany"
"OY2";"BRAC1_horiAA_1st0";1;26;406,100000000151;"A";1;0;NA;"A";"red";"black";"parity";9;300;"Windows";"Chrome";"1280x610";1;0;1;0;"28";"female";"I've a degree related to one of these fields.";"Master degree";"right-handed";"German";"Germany"
"OY2";"BRAC1_horiAA_1st0";1;27;495,729999999865;"L";1;0;NA;"L";"red";"black";"magnit";1;300;"Windows";"Chrome";"1280x610";1;1;0;0;"28";"female";"I've a degree related to one of these fields.";"Master degree";"right-handed";"German";"Germany"
"OY2";"BRAC1_horiAA_1st0";1;28;451,494999999995;"L";1;0;NA;"L";"red";"black";"parity";6;300;"Windows";"Chrome";"1280x610";1;0;0;0;"28";"female";"I've a degree related to one of these fields.";"Master degree";"right-handed";"German";"Germany"
"OY2";"BRAC1_horiAA_1st0";1;29;419,210000000021;"A";1;0;NA;"A";"red";"black";"parity";7;300;"Windows";"Chrome";"1280x610";0;1;0;0;"28";"female";"I've a degree related to one of these fields.";"Master degree";"right-handed";"German";"Germany"
"OY2";"BRAC1_horiAA_1st0";1;30;433,995000000054;"A";1;0;NA;"A";"red";"black";"parity";1;300;"Windows";"Chrome";"1280x610";0;0;0;0;"28";"female";"I've a degree related to one of these fields.";"Master degree";"right-handed";"German";"Germany"
"OY2";"BRAC1_horiAA_1st0";1;31;442,625000000175;"A";1;0;NA;"A";"red";"black";"magnit";9;300;"Windows";"Chrome";"1280x610";1;0;0;0;"28";"female";"I've a degree related to one of these fields.";"Master degree";"right-handed";"German";"Germany"
"OY2";"BRAC1_horiAA_1st0";1;32;394,374999999825;"L";1;0;NA;"L";"red";"black";"magnit";3;300;"Windows";"Chrome";"1280x610";0;1;0;0;"28";"female";"I've a degree related to one of these fields.";"Master degree";"right-handed";"German";"Germany"
"OY2";"BRAC1_horiAA_1st0";1;33;372,080000000075;"L";1;0;NA;"L";"red";"black";"magnit";2;300;"Windows";"Chrome";"1280x610";0;0;0;0;"28";"female";"I've a degree related to one of these fields.";"Master degree";"right-handed";"German";"Germany"
"OY2";"BRAC1_horiAA_1st0";1;34;417,899999999907;"A";1;0;NA;"A";"red";"black";"parity";3;300;"Windows";"Chrome";"1280x610";1;1;0;0;"28";"female";"I've a degree related to one of these fields.";"Master degree";"right-handed";"German";"Germany"
"OY2";"BRAC1_horiAA_1st0";1;35;520,364999999874;"A";1;0;NA;"A";"red";"black";"parity";7;300;"Windows";"Chrome";"1280x610";0;0;0;0;"28";"female";"I've a degree related to one of these fields.";"Master degree";"right-handed";"German";"Germany"
"OY2";"BRAC1_horiAA_1st0";1;36;484,815000000002;"L";1;0;NA;"L";"red";"black";"parity";8;300;"Windows";"Chrome";"1280x610";0;1;0;0;"28";"female";"I've a degree related to one of these fields.";"Master degree";"right-handed";"German";"Germany"
"OY2";"BRAC1_horiAA_1st0";1;37;439,290000000037;"A";1;0;NA;"A";"red";"black";"parity";7;300;"Windows";"Chrome";"1280x610";0;1;0;0;"28";"female";"I've a degree related to one of these fields.";"Master degree";"right-handed";"German";"Germany"
"OY2";"BRAC1_horiAA_1st0";1;38;430,610000000161;"L";1;0;NA;"L";"blue";"black";"parity";6;300;"Windows";"Chrome";"1280x610";0;1;1;0;"28";"female";"I've a degree related to one of these fields.";"Master degree";"right-handed";"German";"Germany"
"OY2";"BRAC1_horiAA_1st0";1;39;371,47000000003;"L";1;0;NA;"L";"red";"black";"magnit";3;300;"Windows";"Chrome";"1280x610";1;0;1;0;"28";"female";"I've a degree related to one of these fields.";"Master degree";"right-handed";"German";"Germany"
"OY2";"BRAC1_horiAA_1st0";1;40;446,255000000063;"L";1;0;NA;"L";"red";"black";"parity";6;300;"Windows";"Chrome";"1280x610";1;0;0;0;"28";"female";"I've a degree related to one of these fields.";"Master degree";"right-handed";"German";"Germany"
"OY2";"BRAC1_horiAA_1st0";1;41;484,525000000081;"A";1;0;NA;"A";"red";"black";"parity";9;300;"Windows";"Chrome";"1280x610";0;1;0;0;"28";"female";"I've a degree related to one of these fields.";"Master degree";"right-handed";"German";"Germany"
"OY2";"BRAC1_horiAA_1st0";1;42;644,745000000054;"A";1;0;NA;"A";"blue";"black";"parity";3;300;"Windows";"Chrome";"1280x610";0;0;1;0;"28";"female";"I've a degree related to one of these fields.";"Master degree";"right-handed";"German";"Germany"
"OY2";"BRAC1_horiAA_1st0";1;43;487,62999999983;"A";1;0;NA;"A";"red";"black";"parity";1;300;"Windows";"Chrome";"1280x610";0;0;1;0;"28";"female";"I've a degree related to one of these fields.";"Master degree";"right-handed";"German";"Germany"
"OY2";"BRAC1_horiAA_1st0";1;44;461,724999999919;"L";1;0;NA;"L";"blue";"black";"parity";2;300;"Windows";"Chrome";"1280x610";0;1;1;0;"28";"female";"I've a degree related to one of these fields.";"Master degree";"right-handed";"German";"Germany"
"OY2";"BRAC1_horiAA_1st0";1;45;402,724999999919;"A";1;0;NA;"A";"blue";"black";"parity";7;300;"Windows";"Chrome";"1280x610";0;1;0;0;"28";"female";"I've a degree related to one of these fields.";"Master degree";"right-handed";"German";"Germany"
"OY2";"BRAC1_horiAA_1st0";1;46;452,324999999953;"A";1;0;NA;"A";"red";"black";"parity";1;300;"Windows";"Chrome";"1280x610";0;0;1;0;"28";"female";"I've a degree related to one of these fields.";"Master degree";"right-handed";"German";"Germany"
"OY2";"BRAC1_horiAA_1st0";1;47;460,879999999888;"L";1;0;NA;"L";"blue";"black";"parity";6;300;"Windows";"Chrome";"1280x610";0;1;1;0;"28";"female";"I've a degree related to one of these fields.";"Master degree";"right-handed";"German";"Germany"
"OY2";"BRAC1_horiAA_1st0";1;48;422,939999999944;"L";1;0;NA;"L";"blue";"black";"magnit";2;300;"Windows";"Chrome";"1280x610";1;0;0;0;"28";"female";"I've a degree related to one of these fields.";"Master degree";"right-handed";"German";"Germany"
"OY2";"BRAC1_horiAA_1st0";1;49;358,080000000016;"A";1;0;NA;"A";"red";"black";"magnit";7;300;"Windows";"Chrome";"1280x610";0;1;1;0;"28";"female";"I've a degree related to one of these fields.";"Master degree";"right-handed";"German";"Germany"
"OY2";"BRAC1_horiAA_1st0";1;50;451,360000000044;"A";1;0;NA;"A";"red";"black";"magnit";9;300;"Windows";"Chrome";"1280x610";0;0;0;0;"28";"female";"I've a degree related to one of these fields.";"Master degree";"right-handed";"German";"Germany"
"OY2";"BRAC1_horiAA_1st0";1;51;417,35500000004;"A";1;0;NA;"A";"blue";"black";"magnit";8;300;"Windows";"Chrome";"1280x610";0;0;1;0;"28";"female";"I've a degree related to one of these fields.";"Master degree";"right-handed";"German";"Germany"
"OY2";"BRAC1_horiAA_1st0";1;52;410,509999999893;"A";1;1;NA;"L";"red";"black";"parity";4;300;"Windows";"Chrome";"1280x610";1;1;1;0;"28";"female";"I've a degree related to one of these fields.";"Master degree";"right-handed";"German";"Germany"
"OY2";"BRAC1_horiAA_1st0";1;53;1283,95500000007;"A";1;0;NA;"A";"blue";"black";"parity";3;300;"Windows";"Chrome";"1280x610";0;1;1;1;"28";"female";"I've a degree related to one of these fields.";"Master degree";"right-handed";"German";"Germany"
"OY2";"BRAC1_horiAA_1st0";1;54;509,219999999856;"L";1;0;NA;"L";"blue";"black";"magnit";4;300;"Windows";"Chrome";"1280x610";1;1;0;0;"28";"female";"I've a degree related to one of these fields.";"Master degree";"right-handed";"German";"Germany"
"OY2";"BRAC1_horiAA_1st0";1;55;401,314999999828;"L";1;0;NA;"L";"red";"black";"magnit";2;300;"Windows";"Chrome";"1280x610";0;0;1;0;"28";"female";"I've a degree related to one of these fields.";"Master degree";"right-handed";"German";"Germany"
"OY2";"BRAC1_horiAA_1st0";1;56;407,474999999977;"L";1;0;NA;"L";"blue";"black";"magnit";3;300;"Windows";"Chrome";"1280x610";0;0;1;0;"28";"female";"I've a degree related to one of these fields.";"Master degree";"right-handed";"German";"Germany"
"OY2";"BRAC1_horiAA_1st0";1;57;451,920000000158;"A";1;0;NA;"A";"blue";"black";"parity";1;300;"Windows";"Chrome";"1280x610";1;1;0;0;"28";"female";"I've a degree related to one of these fields.";"Master degree";"right-handed";"German";"Germany"
"OY2";"BRAC1_horiAA_1st0";1;58;452,70000000007;"L";1;0;NA;"L";"red";"black";"parity";4;300;"Windows";"Chrome";"1280x610";0;1;1;0;"28";"female";"I've a degree related to one of these fields.";"Master degree";"right-handed";"German";"Germany"
"OY2";"BRAC1_horiAA_1st0";1;59;473,759999999893;"A";1;0;NA;"A";"red";"black";"parity";3;300;"Windows";"Chrome";"1280x610";0;1;0;0;"28";"female";"I've a degree related to one of these fields.";"Master degree";"right-handed";"German";"Germany"
"OY2";"BRAC1_horiAA_1st0";1;60;484,25;"A";1;0;NA;"A";"red";"black";"magnit";7;300;"Windows";"Chrome";"1280x610";1;0;0;0;"28";"female";"I've a degree related to one of these fields.";"Master degree";"right-handed";"German";"Germany"
"OY2";"BRAC1_horiAA_1st0";1;61;446,299999999814;"A";1;0;NA;"A";"blue";"black";"parity";9;300;"Windows";"Chrome";"1280x610";1;0;1;0;"28";"female";"I've a degree related to one of these fields.";"Master degree";"right-handed";"German";"Germany"
"OY2";"BRAC1_horiAA_1st0";1;62;392,394999999786;"L";1;0;NA;"L";"red";"black";"parity";2;300;"Windows";"Chrome";"1280x610";0;1;1;0;"28";"female";"I've a degree related to one of these fields.";"Master degree";"right-handed";"German";"Germany"
"OY2";"BRAC1_horiAA_1st0";1;63;616,570000000065;"L";1;0;NA;"L";"blue";"black";"parity";8;300;"Windows";"Chrome";"1280x610";0;0;1;0;"28";"female";"I've a degree related to one of these fields.";"Master degree";"right-handed";"German";"Germany"
"OY2";"BRAC1_horiAA_1st0";1;64;482,354999999865;"A";1;0;NA;"A";"blue";"black";"magnit";6;300;"Windows";"Chrome";"1280x610";1;1;0;0;"28";"female";"I've a degree related to one of these fields.";"Master degree";"right-handed";"German";"Germany"
"OY2";"BRAC1_horiAA_1st0";1;65;409,630000000121;"A";1;0;NA;"A";"red";"black";"parity";9;300;"Windows";"Chrome";"1280x610";1;0;1;0;"28";"female";"I've a degree related to one of these fields.";"Master degree";"right-handed";"German";"Germany"
"OY2";"BRAC1_horiAA_1st0";1;66;530,520000000019;"A";1;0;NA;"A";"blue";"black";"parity";1;300;"Windows";"Chrome";"1280x610";0;0;1;0;"28";"female";"I've a degree related to one of these fields.";"Master degree";"right-handed";"German";"Germany"
"OY2";"BRAC1_horiAA_1st0";1;67;423,880000000005;"A";1;0;NA;"A";"blue";"black";"parity";9;300;"Windows";"Chrome";"1280x610";0;0;0;0;"28";"female";"I've a degree related to one of these fields.";"Master degree";"right-handed";"German";"Germany"
"OY2";"BRAC1_horiAA_1st0";1;68;473,859999999986;"L";1;0;NA;"L";"blue";"black";"magnit";2;300;"Windows";"Chrome";"1280x610";1;1;0;0;"28";"female";"I've a degree related to one of these fields.";"Master degree";"right-handed";"German";"Germany"
"OY2";"BRAC1_horiAA_1st0";1;69;450,860000000102;"L";1;0;NA;"L";"red";"black";"magnit";4;300;"Windows";"Chrome";"1280x610";0;0;1;0;"28";"female";"I've a degree related to one of these fields.";"Master degree";"right-handed";"German";"Germany"
"OY2";"BRAC1_horiAA_1st0";1;70;395,634999999893;"A";1;0;NA;"A";"blue";"black";"parity";9;300;"Windows";"Chrome";"1280x610";1;1;1;0;"28";"female";"I've a degree related to one of these fields.";"Master degree";"right-handed";"German";"Germany"
"OY2";"BRAC1_horiAA_1st0";1;71;401,650000000023;"L";1;0;NA;"L";"red";"black";"magnit";1;300;"Windows";"Chrome";"1280x610";1;1;1;0;"28";"female";"I've a degree related to one of these fields.";"Master degree";"right-handed";"German";"Germany"
"OY2";"BRAC1_horiAA_1st0";1;72;413,890000000014;"A";1;0;NA;"A";"blue";"black";"magnit";9;300;"Windows";"Chrome";"1280x610";0;1;1;0;"28";"female";"I've a degree related to one of these fields.";"Master degree";"right-handed";"German";"Germany"
"OY2";"BRAC1_horiAA_1st0";1;73;476,034999999916;"L";1;0;NA;"L";"blue";"black";"magnit";1;300;"Windows";"Chrome";"1280x610";0;1;0;0;"28";"female";"I've a degree related to one of these fields.";"Master degree";"right-handed";"German";"Germany"
"OY2";"BRAC1_horiAA_1st0";1;74;554,295000000158;"L";1;0;NA;"L";"red";"black";"parity";8;300;"Windows";"Chrome";"1280x610";1;0;1;0;"28";"female";"I've a degree related to one of these fields.";"Master degree";"right-handed";"German";"Germany"
"OY2";"BRAC1_horiAA_1st0";1;75;385,63499999966;"A";1;0;NA;"A";"blue";"black";"magnit";9;300;"Windows";"Chrome";"1280x610";1;1;1;0;"28";"female";"I've a degree related to one of these fields.";"Master degree";"right-handed";"German";"Germany"
"OY2";"BRAC1_horiAA_1st0";1;76;766,92499999993;"A";1;0;NA;"A";"red";"black";"magnit";6;300;"Windows";"Chrome";"1280x610";0;0;1;0;"28";"female";"I've a degree related to one of these fields.";"Master degree";"right-handed";"German";"Germany"
"OY2";"BRAC1_horiAA_1st0";1;77;406,339999999967;"A";1;0;NA;"A";"red";"black";"magnit";8;300;"Windows";"Chrome";"1280x610";0;0;0;0;"28";"female";"I've a degree related to one of these fields.";"Master degree";"right-handed";"German";"Germany"
"OY2";"BRAC1_horiAA_1st0";1;78;551,585000000079;"A";1;0;NA;"A";"red";"black";"parity";3;300;"Windows";"Chrome";"1280x610";1;0;0;0;"28";"female";"I've a degree related to one of these fields.";"Master degree";"right-handed";"German";"Germany"
"OY2";"BRAC1_horiAA_1st0";1;79;640,084999999963;"A";1;0;NA;"A";"blue";"black";"magnit";7;300;"Windows";"Chrome";"1280x610";1;0;1;0;"28";"female";"I've a degree related to one of these fields.";"Master degree";"right-handed";"German";"Germany"
"OY2";"BRAC1_horiAA_1st0";1;80;464,520000000019;"L";1;0;NA;"L";"red";"black";"parity";4;300;"Windows";"Chrome";"1280x610";1;1;1;0;"28";"female";"I've a degree related to one of these fields.";"Master degree";"right-handed";"German";"Germany"
"OY2";"BRAC1_horiAA_1st0";1;81;402,080000000307;"A";1;0;NA;"A";"blue";"black";"magnit";7;300;"Windows";"Chrome";"1280x610";1;1;1;0;"28";"female";"I've a degree related to one of these fields.";"Master degree";"right-handed";"German";"Germany"
"OY2";"BRAC1_horiAA_1st0";1;82;469,719999999972;"L";1;0;NA;"L";"blue";"black";"magnit";4;300;"Windows";"Chrome";"1280x610";0;1;0;0;"28";"female";"I've a degree related to one of these fields.";"Master degree";"right-handed";"German";"Germany"
"OY2";"BRAC1_horiAA_1st0";1;83;394,604999999865;"A";1;0;NA;"A";"blue";"black";"magnit";7;300;"Windows";"Chrome";"1280x610";0;1;0;0;"28";"female";"I've a degree related to one of these fields.";"Master degree";"right-handed";"German";"Germany"
"OY2";"BRAC1_horiAA_1st0";1;84;426,065000000177;"L";1;0;NA;"L";"red";"black";"parity";6;300;"Windows";"Chrome";"1280x610";1;1;1;0;"28";"female";"I've a degree related to one of these fields.";"Master degree";"right-handed";"German";"Germany"
"OY2";"BRAC1_horiAA_1st0";1;85;375,719999999623;"L";1;0;NA;"L";"blue";"black";"magnit";1;300;"Windows";"Chrome";"1280x610";1;0;1;0;"28";"female";"I've a degree related to one of these fields.";"Master degree";"right-handed";"German";"Germany"
"OY2";"BRAC1_horiAA_1st0";1;86;478,409999999683;"A";1;0;NA;"A";"blue";"black";"parity";7;300;"Windows";"Chrome";"1280x610";1;1;0;0;"28";"female";"I've a degree related to one of these fields.";"Master degree";"right-handed";"German";"Germany"
"OY2";"BRAC1_horiAA_1st0";1;87;392,465000000433;"L";1;0;NA;"L";"blue";"black";"magnit";1;300;"Windows";"Chrome";"1280x610";1;1;0;0;"28";"female";"I've a degree related to one of these fields.";"Master degree";"right-handed";"German";"Germany"
"OY2";"BRAC1_horiAA_1st0";1;88;398,680000000284;"L";1;0;NA;"L";"blue";"black";"parity";4;300;"Windows";"Chrome";"1280x610";1;0;0;0;"28";"female";"I've a degree related to one of these fields.";"Master degree";"right-handed";"German";"Germany"
"OY2";"BRAC1_horiAA_1st0";1;89;497,030000000028;"A";1;0;NA;"A";"red";"black";"magnit";9;300;"Windows";"Chrome";"1280x610";1;1;1;0;"28";"female";"I've a degree related to one of these fields.";"Master degree";"right-handed";"German";"Germany"
"OY2";"BRAC1_horiAA_1st0";1;90;470,889999999665;"L";1;0;NA;"L";"blue";"black";"magnit";4;300;"Windows";"Chrome";"1280x610";0;1;1;0;"28";"female";"I've a degree related to one of these fields.";"Master degree";"right-handed";"German";"Germany"
"OY2";"BRAC1_horiAA_1st0";1;91;441,070000000298;"A";1;1;NA;"L";"blue";"black";"parity";8;300;"Windows";"Chrome";"1280x610";1;0;0;0;"28";"female";"I've a degree related to one of these fields.";"Master degree";"right-handed";"German";"Germany"
"OY2";"BRAC1_horiAA_1st0";1;92;515,660000000033;"L";1;0;NA;"L";"red";"black";"magnit";1;300;"Windows";"Chrome";"1280x610";1;0;1;1;"28";"female";"I've a degree related to one of these fields.";"Master degree";"right-handed";"German";"Germany"
"OY2";"BRAC1_horiAA_1st0";1;93;486,915000000037;"L";1;0;NA;"L";"blue";"black";"parity";2;300;"Windows";"Chrome";"1280x610";1;0;1;0;"28";"female";"I've a degree related to one of these fields.";"Master degree";"right-handed";"German";"Germany"
"OY2";"BRAC1_horiAA_1st0";1;94;421,40000000014;"L";1;0;NA;"L";"red";"black";"magnit";3;300;"Windows";"Chrome";"1280x610";1;0;1;0;"28";"female";"I've a degree related to one of these fields.";"Master degree";"right-handed";"German";"Germany"
"OY2";"BRAC1_horiAA_1st0";1;95;598,27499999979;"L";1;0;NA;"L";"red";"black";"parity";8;300;"Windows";"Chrome";"1280x610";1;0;0;0;"28";"female";"I've a degree related to one of these fields.";"Master degree";"right-handed";"German";"Germany"
"OY2";"BRAC1_horiAA_1st0";2;0;1207,12499999988;"L";1;0;NA;"L";"blue";"black";"parity";8;0;"Windows";"Chrome";"1280x610";99;99;99;99;"28";"female";"I've a degree related to one of these fields.";"Master degree";"right-handed";"German";"Germany"
"OY2";"BRAC1_horiAA_1st0";2;1;571,579999999842;"L";1;0;NA;"L";"red";"black";"parity";4;0;"Windows";"Chrome";"1280x610";0;0;1;0;"28";"female";"I've a degree related to one of these fields.";"Master degree";"right-handed";"German";"Germany"
"OY2";"BRAC1_horiAA_1st0";2;2;442,814999999828;"L";1;0;NA;"L";"blue";"black";"magnit";2;0;"Windows";"Chrome";"1280x610";1;0;1;0;"28";"female";"I've a degree related to one of these fields.";"Master degree";"right-handed";"German";"Germany"
"OY2";"BRAC1_horiAA_1st0";2;3;420,830000000075;"A";1;0;NA;"A";"red";"black";"parity";7;0;"Windows";"Chrome";"1280x610";1;1;1;0;"28";"female";"I've a degree related to one of these fields.";"Master degree";"right-handed";"German";"Germany"
"OY2";"BRAC1_horiAA_1st0";2;4;548,635000000009;"A";1;0;NA;"A";"blue";"black";"magnit";6;0;"Windows";"Chrome";"1280x610";1;0;1;0;"28";"female";"I've a degree related to one of these fields.";"Master degree";"right-handed";"German";"Germany"
"OY2";"BRAC1_horiAA_1st0";2;5;390,25999999966;"L";1;0;NA;"L";"red";"black";"magnit";4;0;"Windows";"Chrome";"1280x610";0;1;1;0;"28";"female";"I've a degree related to one of these fields.";"Master degree";"right-handed";"German";"Germany"
"OY2";"BRAC1_horiAA_1st0";2;6;488,124999999767;"L";1;0;NA;"L";"blue";"black";"parity";6;0;"Windows";"Chrome";"1280x610";1;0;1;0;"28";"female";"I've a degree related to one of these fields.";"Master degree";"right-handed";"German";"Germany"
"OY2";"BRAC1_horiAA_1st0";2;7;561,629999999772;"L";1;0;NA;"L";"blue";"black";"magnit";4;0;"Windows";"Chrome";"1280x610";1;0;0;0;"28";"female";"I've a degree related to one of these fields.";"Master degree";"right-handed";"German";"Germany"
"OY2";"BRAC1_horiAA_1st0";2;8;499,360000000335;"A";1;0;NA;"A";"red";"black";"parity";3;0;"Windows";"Chrome";"1280x610";1;1;1;0;"28";"female";"I've a degree related to one of these fields.";"Master degree";"right-handed";"German";"Germany"
"OY2";"BRAC1_horiAA_1st0";2;9;454,679999999935;"L";1;0;NA;"L";"blue";"black";"parity";2;0;"Windows";"Chrome";"1280x610";0;1;1;0;"28";"female";"I've a degree related to one of these fields.";"Master degree";"right-handed";"German";"Germany"
"OY2";"BRAC1_horiAA_1st0";2;10;534,505000000121;"L";1;0;NA;"L";"blue";"black";"parity";4;0;"Windows";"Chrome";"1280x610";0;0;0;0;"28";"female";"I've a degree related to one of these fields.";"Master degree";"right-handed";"German";"Germany"
"OY2";"BRAC1_horiAA_1st0";2;11;382,145000000019;"A";1;0;NA;"A";"red";"black";"parity";3;0;"Windows";"Chrome";"1280x610";0;1;1;0;"28";"female";"I've a degree related to one of these fields.";"Master degree";"right-handed";"German";"Germany"
"OY2";"BRAC1_horiAA_1st0";2;12;401,869999999646;"L";1;0;NA;"L";"blue";"black";"parity";4;0;"Windows";"Chrome";"1280x610";0;1;1;0;"28";"female";"I've a degree related to one of these fields.";"Master degree";"right-handed";"German";"Germany"
"OY2";"BRAC1_horiAA_1st0";2;13;418,895000000251;"L";1;0;NA;"L";"blue";"black";"magnit";3;0;"Windows";"Chrome";"1280x610";1;0;0;0;"28";"female";"I've a degree related to one of these fields.";"Master degree";"right-handed";"German";"Germany"
"OY2";"BRAC1_horiAA_1st0";2;14;443,295000000042;"L";1;0;NA;"L";"red";"black";"parity";8;0;"Windows";"Chrome";"1280x610";1;0;1;0;"28";"female";"I've a degree related to one of these fields.";"Master degree";"right-handed";"German";"Germany"
"OY2";"BRAC1_horiAA_1st0";2;15;430,589999999967;"L";1;0;NA;"L";"blue";"black";"parity";6;0;"Windows";"Chrome";"1280x610";0;0;1;0;"28";"female";"I've a degree related to one of these fields.";"Master degree";"right-handed";"German";"Germany"
"OY2";"BRAC1_horiAA_1st0";2;16;444,550000000163;"A";1;0;NA;"A";"blue";"black";"parity";1;0;"Windows";"Chrome";"1280x610";0;1;0;0;"28";"female";"I've a degree related to one of these fields.";"Master degree";"right-handed";"German";"Germany"
"OY2";"BRAC1_horiAA_1st0";2;17;390,840000000084;"L";1;0;NA;"L";"blue";"black";"magnit";4;0;"Windows";"Chrome";"1280x610";1;1;0;0;"28";"female";"I've a degree related to one of these fields.";"Master degree";"right-handed";"German";"Germany"
"OY2";"BRAC1_horiAA_1st0";2;18;494,969999999739;"A";1;0;NA;"A";"blue";"black";"magnit";7;0;"Windows";"Chrome";"1280x610";0;1;0;0;"28";"female";"I've a degree related to one of these fields.";"Master degree";"right-handed";"German";"Germany"
"OY2";"BRAC1_horiAA_1st0";2;19;528,785000000033;"A";1;0;NA;"A";"blue";"black";"parity";9;0;"Windows";"Chrome";"1280x610";1;0;0;0;"28";"female";"I've a degree related to one of these fields.";"Master degree";"right-handed";"German";"Germany"
"OY2";"BRAC1_horiAA_1st0";2;20;443,77499999979;"A";1;0;NA;"A";"red";"black";"magnit";7;0;"Windows";"Chrome";"1280x610";1;0;1;0;"28";"female";"I've a degree related to one of these fields.";"Master degree";"right-handed";"German";"Germany"
"OY2";"BRAC1_horiAA_1st0";2;21;412,244999999995;"L";1;0;NA;"L";"red";"black";"magnit";1;0;"Windows";"Chrome";"1280x610";0;1;0;0;"28";"female";"I've a degree related to one of these fields.";"Master degree";"right-handed";"German";"Germany"
"OY2";"BRAC1_horiAA_1st0";2;22;391,465000000084;"L";1;0;NA;"L";"red";"black";"magnit";3;0;"Windows";"Chrome";"1280x610";0;0;0;0;"28";"female";"I've a degree related to one of these fields.";"Master degree";"right-handed";"German";"Germany"
"OY2";"BRAC1_horiAA_1st0";2;23;401,804999999935;"A";1;0;NA;"A";"red";"black";"magnit";8;0;"Windows";"Chrome";"1280x610";0;1;0;0;"28";"female";"I've a degree related to one of these fields.";"Master degree";"right-handed";"German";"Germany"
"OY2";"BRAC1_horiAA_1st0";2;24;383,110000000219;"L";1;0;NA;"L";"red";"black";"magnit";1;0;"Windows";"Chrome";"1280x610";0;1;0;0;"28";"female";"I've a degree related to one of these fields.";"Master degree";"right-handed";"German";"Germany"
"OY2";"BRAC1_horiAA_1st0";2;25;523,134999999893;"A";1;0;NA;"A";"blue";"black";"parity";3;0;"Windows";"Chrome";"1280x610";1;1;1;0;"28";"female";"I've a degree related to one of these fields.";"Master degree";"right-handed";"German";"Germany"
"OY2";"BRAC1_horiAA_1st0";2;26;417,550000000047;"L";1;0;NA;"L";"blue";"black";"magnit";1;0;"Windows";"Chrome";"1280x610";1;1;0;0;"28";"female";"I've a degree related to one of these fields.";"Master degree";"right-handed";"German";"Germany"
"OY2";"BRAC1_horiAA_1st0";2;27;408,219999999856;"A";1;0;NA;"A";"red";"black";"magnit";9;0;"Windows";"Chrome";"1280x610";0;1;1;0;"28";"female";"I've a degree related to one of these fields.";"Master degree";"right-handed";"German";"Germany"
"OY2";"BRAC1_horiAA_1st0";2;28;485,709999999846;"L";1;0;NA;"L";"blue";"black";"parity";2;0;"Windows";"Chrome";"1280x610";1;1;1;0;"28";"female";"I've a degree related to one of these fields.";"Master degree";"right-handed";"German";"Germany"
"OY2";"BRAC1_horiAA_1st0";2;29;357,669999999925;"L";1;0;NA;"L";"red";"black";"magnit";4;0;"Windows";"Chrome";"1280x610";1;0;1;0;"28";"female";"I've a degree related to one of these fields.";"Master degree";"right-handed";"German";"Germany"
"OY2";"BRAC1_horiAA_1st0";2;30;655,070000000298;"A";1;0;NA;"A";"red";"black";"parity";1;0;"Windows";"Chrome";"1280x610";1;1;0;0;"28";"female";"I've a degree related to one of these fields.";"Master degree";"right-handed";"German";"Germany"
"OY2";"BRAC1_horiAA_1st0";2;31;448,915000000037;"A";1;0;NA;"A";"blue";"black";"magnit";8;0;"Windows";"Chrome";"1280x610";1;0;1;0;"28";"female";"I've a degree related to one of these fields.";"Master degree";"right-handed";"German";"Germany"
"OY2";"BRAC1_horiAA_1st0";2;32;399,434999999823;"L";1;0;NA;"L";"red";"black";"magnit";1;0;"Windows";"Chrome";"1280x610";0;1;1;0;"28";"female";"I've a degree related to one of these fields.";"Master degree";"right-handed";"German";"Germany"
"OY2";"BRAC1_horiAA_1st0";2;33;428,845000000438;"A";1;0;NA;"A";"blue";"black";"magnit";8;0;"Windows";"Chrome";"1280x610";0;1;1;0;"28";"female";"I've a degree related to one of these fields.";"Master degree";"right-handed";"German";"Germany"
"OY2";"BRAC1_horiAA_1st0";2;34;521,420000000042;"A";1;0;NA;"A";"blue";"black";"parity";7;0;"Windows";"Chrome";"1280x610";1;0;0;0;"28";"female";"I've a degree related to one of these fields.";"Master degree";"right-handed";"German";"Germany"
"OY2";"BRAC1_horiAA_1st0";2;35;383,019999999669;"L";1;0;NA;"L";"red";"black";"magnit";4;0;"Windows";"Chrome";"1280x610";1;1;1;0;"28";"female";"I've a degree related to one of these fields.";"Master degree";"right-handed";"German";"Germany"
"OY2";"BRAC1_horiAA_1st0";2;36;535,954999999842;"A";1;0;NA;"A";"blue";"black";"parity";3;0;"Windows";"Chrome";"1280x610";1;1;1;0;"28";"female";"I've a degree related to one of these fields.";"Master degree";"right-handed";"German";"Germany"
"OY2";"BRAC1_horiAA_1st0";2;37;536,059999999939;"L";1;0;NA;"L";"blue";"black";"parity";8;0;"Windows";"Chrome";"1280x610";0;1;0;0;"28";"female";"I've a degree related to one of these fields.";"Master degree";"right-handed";"German";"Germany"
"OY2";"BRAC1_horiAA_1st0";2;38;444,834999999846;"L";1;0;NA;"L";"blue";"black";"parity";6;0;"Windows";"Chrome";"1280x610";0;0;0;0;"28";"female";"I've a degree related to one of these fields.";"Master degree";"right-handed";"German";"Germany"
"OY2";"BRAC1_horiAA_1st0";2;39;492,644999999902;"A";1;0;NA;"A";"red";"black";"parity";1;0;"Windows";"Chrome";"1280x610";0;1;1;0;"28";"female";"I've a degree related to one of these fields.";"Master degree";"right-handed";"German";"Germany"
"OY2";"BRAC1_horiAA_1st0";2;40;426,089999999851;"L";1;0;NA;"L";"red";"black";"magnit";3;0;"Windows";"Chrome";"1280x610";1;1;0;0;"28";"female";"I've a degree related to one of these fields.";"Master degree";"right-handed";"German";"Germany"
"OY2";"BRAC1_horiAA_1st0";2;41;533,604999999981;"L";1;0;NA;"L";"red";"black";"parity";6;0;"Windows";"Chrome";"1280x610";1;0;0;0;"28";"female";"I've a degree related to one of these fields.";"Master degree";"right-handed";"German";"Germany"
"OY2";"BRAC1_horiAA_1st0";2;42;388,544999999809;"L";1;0;NA;"L";"blue";"black";"magnit";4;0;"Windows";"Chrome";"1280x610";1;0;1;0;"28";"female";"I've a degree related to one of these fields.";"Master degree";"right-handed";"German";"Germany"
"OY2";"BRAC1_horiAA_1st0";2;43;441,694999999949;"A";1;0;NA;"A";"red";"black";"parity";1;0;"Windows";"Chrome";"1280x610";1;1;1;0;"28";"female";"I've a degree related to one of these fields.";"Master degree";"right-handed";"German";"Germany"
"OY2";"BRAC1_horiAA_1st0";2;44;459,269999999786;"A";1;0;NA;"A";"blue";"black";"magnit";8;0;"Windows";"Chrome";"1280x610";1;0;1;0;"28";"female";"I've a degree related to one of these fields.";"Master degree";"right-handed";"German";"Germany"
"OY2";"BRAC1_horiAA_1st0";2;45;954,404999999912;"L";1;0;NA;"L";"blue";"black";"magnit";3;0;"Windows";"Chrome";"1280x610";0;1;0;0;"28";"female";"I've a degree related to one of these fields.";"Master degree";"right-handed";"German";"Germany"
"OY2";"BRAC1_horiAA_1st0";2;46;875,650000000023;"A";1;0;NA;"A";"red";"black";"magnit";7;0;"Windows";"Chrome";"1280x610";0;1;1;0;"28";"female";"I've a degree related to one of these fields.";"Master degree";"right-handed";"German";"Germany"
"OY2";"BRAC1_horiAA_1st0";2;47;440,310000000405;"L";1;0;NA;"L";"red";"black";"magnit";3;0;"Windows";"Chrome";"1280x610";0;1;0;0;"28";"female";"I've a degree related to one of these fields.";"Master degree";"right-handed";"German";"Germany"
"OY2";"BRAC1_horiAA_1st0";2;48;497,405000000144;"L";1;0;NA;"L";"red";"black";"parity";2;0;"Windows";"Chrome";"1280x610";1;0;0;0;"28";"female";"I've a degree related to one of these fields.";"Master degree";"right-handed";"German";"Germany"
"OY2";"BRAC1_horiAA_1st0";2;49;491,605000000214;"A";1;0;NA;"A";"red";"black";"magnit";6;0;"Windows";"Chrome";"1280x610";1;1;0;0;"28";"female";"I've a degree related to one of these fields.";"Master degree";"right-handed";"German";"Germany"
"OY2";"BRAC1_horiAA_1st0";2;50;379,244999999646;"L";1;0;NA;"L";"red";"black";"magnit";2;0;"Windows";"Chrome";"1280x610";0;1;0;0;"28";"female";"I've a degree related to one of these fields.";"Master degree";"right-handed";"German";"Germany"
"OY2";"BRAC1_horiAA_1st0";2;51;454,374999999884;"A";1;0;NA;"A";"red";"black";"magnit";9;0;"Windows";"Chrome";"1280x610";0;1;0;0;"28";"female";"I've a degree related to one of these fields.";"Master degree";"right-handed";"German";"Germany"
"OY2";"BRAC1_horiAA_1st0";2;52;445,625000000233;"L";1;0;NA;"L";"red";"black";"parity";6;0;"Windows";"Chrome";"1280x610";1;1;0;0;"28";"female";"I've a degree related to one of these fields.";"Master degree";"right-handed";"German";"Germany"
"OY2";"BRAC1_horiAA_1st0";2;53;432,064999999944;"A";1;0;NA;"A";"blue";"black";"parity";1;0;"Windows";"Chrome";"1280x610";0;1;1;0;"28";"female";"I've a degree related to one of these fields.";"Master degree";"right-handed";"German";"Germany"
"OY2";"BRAC1_horiAA_1st0";2;54;364,804999999702;"L";1;0;NA;"L";"blue";"black";"magnit";2;0;"Windows";"Chrome";"1280x610";1;1;0;0;"28";"female";"I've a degree related to one of these fields.";"Master degree";"right-handed";"German";"Germany"
"OY2";"BRAC1_horiAA_1st0";2;55;451,34999999986;"L";1;0;NA;"L";"red";"black";"parity";8;0;"Windows";"Chrome";"1280x610";1;0;1;0;"28";"female";"I've a degree related to one of these fields.";"Master degree";"right-handed";"German";"Germany"
"OY2";"BRAC1_horiAA_1st0";2;56;455,440000000177;"A";1;0;NA;"A";"blue";"black";"magnit";6;0;"Windows";"Chrome";"1280x610";1;1;1;0;"28";"female";"I've a degree related to one of these fields.";"Master degree";"right-handed";"German";"Germany"
"OY2";"BRAC1_horiAA_1st0";2;57;408,214999999851;"L";1;0;NA;"L";"blue";"black";"magnit";1;0;"Windows";"Chrome";"1280x610";0;1;0;0;"28";"female";"I've a degree related to one of these fields.";"Master degree";"right-handed";"German";"Germany"
"OY2";"BRAC1_horiAA_1st0";2;58;418,920000000042;"L";1;0;NA;"L";"blue";"black";"magnit";3;0;"Windows";"Chrome";"1280x610";0;0;0;0;"28";"female";"I've a degree related to one of these fields.";"Master degree";"right-handed";"German";"Germany"
"OY2";"BRAC1_horiAA_1st0";2;59;565,259999999893;"A";1;0;NA;"A";"red";"black";"parity";9;0;"Windows";"Chrome";"1280x610";1;1;1;0;"28";"female";"I've a degree related to one of these fields.";"Master degree";"right-handed";"German";"Germany"
"OY2";"BRAC1_horiAA_1st0";2;60;353,305000000051;"L";1;0;NA;"L";"blue";"black";"magnit";1;0;"Windows";"Chrome";"1280x610";1;1;1;0;"28";"female";"I've a degree related to one of these fields.";"Master degree";"right-handed";"German";"Germany"
"OY2";"BRAC1_horiAA_1st0";2;61;417,59999999986;"A";1;0;NA;"A";"blue";"black";"magnit";9;0;"Windows";"Chrome";"1280x610";0;1;0;0;"28";"female";"I've a degree related to one of these fields.";"Master degree";"right-handed";"German";"Germany"
"OY2";"BRAC1_horiAA_1st0";2;62;406,035000000033;"L";1;0;NA;"L";"red";"black";"magnit";2;0;"Windows";"Chrome";"1280x610";0;1;1;0;"28";"female";"I've a degree related to one of these fields.";"Master degree";"right-handed";"German";"Germany"
"OY2";"BRAC1_horiAA_1st0";2;63;519,604999999981;"A";1;0;NA;"A";"red";"black";"magnit";6;0;"Windows";"Chrome";"1280x610";0;1;0;0;"28";"female";"I've a degree related to one of these fields.";"Master degree";"right-handed";"German";"Germany"
"OY2";"BRAC1_horiAA_1st0";2;64;447,874999999767;"A";1;0;NA;"A";"red";"black";"parity";9;0;"Windows";"Chrome";"1280x610";1;0;0;0;"28";"female";"I've a degree related to one of these fields.";"Master degree";"right-handed";"German";"Germany"
"OY2";"BRAC1_horiAA_1st0";2;65;547,219999999856;"L";1;0;NA;"L";"blue";"black";"parity";8;0;"Windows";"Chrome";"1280x610";0;1;1;0;"28";"female";"I've a degree related to one of these fields.";"Master degree";"right-handed";"German";"Germany"
"OY2";"BRAC1_horiAA_1st0";2;66;503,464999999735;"A";1;0;NA;"A";"red";"black";"parity";3;0;"Windows";"Chrome";"1280x610";0;1;1;0;"28";"female";"I've a degree related to one of these fields.";"Master degree";"right-handed";"German";"Germany"
"OY2";"BRAC1_horiAA_1st0";2;67;465,505000000121;"A";1;0;NA;"A";"blue";"black";"parity";7;0;"Windows";"Chrome";"1280x610";0;0;1;0;"28";"female";"I've a degree related to one of these fields.";"Master degree";"right-handed";"German";"Germany"
"OY2";"BRAC1_horiAA_1st0";2;68;617,539999999688;"A";1;0;NA;"A";"blue";"black";"parity";1;0;"Windows";"Chrome";"1280x610";0;0;0;0;"28";"female";"I've a degree related to one of these fields.";"Master degree";"right-handed";"German";"Germany"
"OY2";"BRAC1_horiAA_1st0";2;69;389,20000000007;"L";1;0;NA;"L";"blue";"black";"magnit";2;0;"Windows";"Chrome";"1280x610";1;1;0;0;"28";"female";"I've a degree related to one of these fields.";"Master degree";"right-handed";"German";"Germany"
"OY2";"BRAC1_horiAA_1st0";2;70;480,949999999604;"A";1;0;NA;"A";"blue";"black";"magnit";9;0;"Windows";"Chrome";"1280x610";0;1;0;0;"28";"female";"I've a degree related to one of these fields.";"Master degree";"right-handed";"German";"Germany"
"OY2";"BRAC1_horiAA_1st0";2;71;460,945000000298;"L";1;0;NA;"L";"red";"black";"parity";8;0;"Windows";"Chrome";"1280x610";1;1;1;0;"28";"female";"I've a degree related to one of these fields.";"Master degree";"right-handed";"German";"Germany"
"OY2";"BRAC1_horiAA_1st0";2;72;502,739999999874;"A";1;0;NA;"A";"blue";"black";"magnit";9;0;"Windows";"Chrome";"1280x610";1;1;1;0;"28";"female";"I've a degree related to one of these fields.";"Master degree";"right-handed";"German";"Germany"
"OY2";"BRAC1_horiAA_1st0";2;73;475,104999999981;"A";1;0;NA;"A";"blue";"black";"magnit";7;0;"Windows";"Chrome";"1280x610";0;0;0;0;"28";"female";"I've a degree related to one of these fields.";"Master degree";"right-handed";"German";"Germany"
"OY2";"BRAC1_horiAA_1st0";2;74;480,434999999939;"A";1;0;NA;"A";"blue";"black";"magnit";6;0;"Windows";"Chrome";"1280x610";0;0;0;0;"28";"female";"I've a degree related to one of these fields.";"Master degree";"right-handed";"German";"Germany"
"OY2";"BRAC1_horiAA_1st0";2;75;609,320000000065;"L";1;0;NA;"L";"blue";"black";"parity";4;0;"Windows";"Chrome";"1280x610";1;1;0;0;"28";"female";"I've a degree related to one of these fields.";"Master degree";"right-handed";"German";"Germany"
"OY2";"BRAC1_horiAA_1st0";2;76;433,815000000293;"A";1;0;NA;"A";"red";"black";"magnit";6;0;"Windows";"Chrome";"1280x610";1;1;1;0;"28";"female";"I've a degree related to one of these fields.";"Master degree";"right-handed";"German";"Germany"
"OY2";"BRAC1_horiAA_1st0";2;77;549,410000000033;"A";1;0;NA;"A";"blue";"black";"parity";7;0;"Windows";"Chrome";"1280x610";1;0;1;0;"28";"female";"I've a degree related to one of these fields.";"Master degree";"right-handed";"German";"Germany"
"OY2";"BRAC1_horiAA_1st0";2;78;540,074999999953;"L";1;0;NA;"L";"red";"black";"parity";4;0;"Windows";"Chrome";"1280x610";0;1;1;0;"28";"female";"I've a degree related to one of these fields.";"Master degree";"right-handed";"German";"Germany"
"OY2";"BRAC1_horiAA_1st0";2;79;428,844999999972;"L";1;0;NA;"L";"red";"black";"parity";6;0;"Windows";"Chrome";"1280x610";0;0;0;0;"28";"female";"I've a degree related to one of these fields.";"Master degree";"right-handed";"German";"Germany"
"OY2";"BRAC1_horiAA_1st0";2;80;450,99000000034;"A";1;0;NA;"A";"red";"black";"magnit";7;0;"Windows";"Chrome";"1280x610";1;1;0;0;"28";"female";"I've a degree related to one of these fields.";"Master degree";"right-handed";"German";"Germany"
"OY2";"BRAC1_horiAA_1st0";2;81;438,9099999998;"A";1;0;NA;"A";"red";"black";"magnit";9;0;"Windows";"Chrome";"1280x610";0;0;0;0;"28";"female";"I've a degree related to one of these fields.";"Master degree";"right-handed";"German";"Germany"
"OY2";"BRAC1_horiAA_1st0";2;82;423,700000000186;"L";1;0;NA;"L";"red";"black";"parity";4;0;"Windows";"Chrome";"1280x610";1;1;0;0;"28";"female";"I've a degree related to one of these fields.";"Master degree";"right-handed";"German";"Germany"
"OY2";"BRAC1_horiAA_1st0";2;83;434,264999999898;"L";1;0;NA;"L";"red";"black";"parity";2;0;"Windows";"Chrome";"1280x610";0;0;0;0;"28";"female";"I've a degree related to one of these fields.";"Master degree";"right-handed";"German";"Germany"
"OY2";"BRAC1_horiAA_1st0";2;84;515,684999999823;"A";1;0;NA;"A";"blue";"black";"parity";3;0;"Windows";"Chrome";"1280x610";0;1;1;0;"28";"female";"I've a degree related to one of these fields.";"Master degree";"right-handed";"German";"Germany"
"OY2";"BRAC1_horiAA_1st0";2;85;425,069999999832;"L";1;1;NA;"A";"blue";"black";"parity";9;0;"Windows";"Chrome";"1280x610";0;0;0;0;"28";"female";"I've a degree related to one of these fields.";"Master degree";"right-handed";"German";"Germany"
"OY2";"BRAC1_horiAA_1st0";2;86;446,130000000237;"A";1;0;NA;"A";"red";"black";"parity";7;0;"Windows";"Chrome";"1280x610";0;0;1;1;"28";"female";"I've a degree related to one of these fields.";"Master degree";"right-handed";"German";"Germany"
"OY2";"BRAC1_horiAA_1st0";2;87;423,310000000056;"A";1;0;NA;"A";"blue";"black";"parity";9;0;"Windows";"Chrome";"1280x610";0;0;1;0;"28";"female";"I've a degree related to one of these fields.";"Master degree";"right-handed";"German";"Germany"
"OY2";"BRAC1_horiAA_1st0";2;88;469,274999999907;"A";1;0;NA;"A";"red";"black";"magnit";8;0;"Windows";"Chrome";"1280x610";1;0;1;0;"28";"female";"I've a degree related to one of these fields.";"Master degree";"right-handed";"German";"Germany"
"OY2";"BRAC1_horiAA_1st0";2;89;530,959999999614;"L";1;0;NA;"L";"blue";"black";"parity";2;0;"Windows";"Chrome";"1280x610";1;1;1;0;"28";"female";"I've a degree related to one of these fields.";"Master degree";"right-handed";"German";"Germany"
"OY2";"BRAC1_horiAA_1st0";2;90;421,004999999655;"A";1;0;NA;"A";"red";"black";"magnit";8;0;"Windows";"Chrome";"1280x610";1;1;1;0;"28";"female";"I've a degree related to one of these fields.";"Master degree";"right-handed";"German";"Germany"
"OY2";"BRAC1_horiAA_1st0";2;91;483,970000000205;"A";1;0;NA;"A";"red";"black";"parity";9;0;"Windows";"Chrome";"1280x610";1;0;0;0;"28";"female";"I've a degree related to one of these fields.";"Master degree";"right-handed";"German";"Germany"
"OY2";"BRAC1_horiAA_1st0";2;92;514,970000000205;"L";1;0;NA;"L";"red";"black";"parity";2;0;"Windows";"Chrome";"1280x610";0;1;0;0;"28";"female";"I've a degree related to one of these fields.";"Master degree";"right-handed";"German";"Germany"
"OY2";"BRAC1_horiAA_1st0";2;93;441,52500000014;"A";1;0;NA;"A";"red";"black";"parity";7;0;"Windows";"Chrome";"1280x610";0;1;0;0;"28";"female";"I've a degree related to one of these fields.";"Master degree";"right-handed";"German";"Germany"
"OY2";"BRAC1_horiAA_1st0";2;94;435,524999999907;"L";1;0;NA;"L";"red";"black";"magnit";2;0;"Windows";"Chrome";"1280x610";1;1;0;0;"28";"female";"I've a degree related to one of these fields.";"Master degree";"right-handed";"German";"Germany"
"OY2";"BRAC1_horiAA_1st0";2;95;426,315000000177;"A";1;0;NA;"A";"blue";"black";"magnit";7;0;"Windows";"Chrome";"1280x610";0;1;1;0;"28";"female";"I've a degree related to one of these fields.";"Master degree";"right-handed";"German";"Germany"
"OY2";"BRAC1_horiAA_1st0";3;0;477,035000000265;"A";1;0;NA;"A";"blue";"black";"parity";3;300;"Windows";"Chrome";"1280x610";99;99;99;99;"28";"female";"I've a degree related to one of these fields.";"Master degree";"right-handed";"German";"Germany"
"OY2";"BRAC1_horiAA_1st0";3;1;428,38499999966;"A";1;0;NA;"A";"red";"black";"parity";7;300;"Windows";"Chrome";"1280x610";0;0;1;0;"28";"female";"I've a degree related to one of these fields.";"Master degree";"right-handed";"German";"Germany"
"OY2";"BRAC1_horiAA_1st0";3;2;410,385000000242;"A";1;1;NA;"L";"red";"black";"parity";6;300;"Windows";"Chrome";"1280x610";0;1;0;0;"28";"female";"I've a degree related to one of these fields.";"Master degree";"right-handed";"German";"Germany"
"OY2";"BRAC1_horiAA_1st0";3;3;444,024999999674;"A";1;0;NA;"A";"blue";"black";"magnit";7;300;"Windows";"Chrome";"1280x610";1;1;1;1;"28";"female";"I've a degree related to one of these fields.";"Master degree";"right-handed";"German";"Germany"
"OY2";"BRAC1_horiAA_1st0";3;4;418,024999999907;"L";1;0;NA;"L";"blue";"black";"magnit";4;300;"Windows";"Chrome";"1280x610";0;1;0;0;"28";"female";"I've a degree related to one of these fields.";"Master degree";"right-handed";"German";"Germany"
"OY2";"BRAC1_horiAA_1st0";3;5;501,369999999995;"A";1;0;NA;"A";"blue";"black";"magnit";8;300;"Windows";"Chrome";"1280x610";0;1;0;0;"28";"female";"I've a degree related to one of these fields.";"Master degree";"right-handed";"German";"Germany"
"OY2";"BRAC1_horiAA_1st0";3;6;401,949999999953;"L";1;0;NA;"L";"red";"black";"parity";2;300;"Windows";"Chrome";"1280x610";1;1;1;0;"28";"female";"I've a degree related to one of these fields.";"Master degree";"right-handed";"German";"Germany"
"OY2";"BRAC1_horiAA_1st0";3;7;447,514999999781;"A";1;0;NA;"A";"red";"black";"magnit";6;300;"Windows";"Chrome";"1280x610";1;1;0;0;"28";"female";"I've a degree related to one of these fields.";"Master degree";"right-handed";"German";"Germany"
"OY2";"BRAC1_horiAA_1st0";3;8;390,565000000061;"L";1;0;NA;"L";"red";"black";"magnit";4;300;"Windows";"Chrome";"1280x610";0;1;0;0;"28";"female";"I've a degree related to one of these fields.";"Master degree";"right-handed";"German";"Germany"
"OY2";"BRAC1_horiAA_1st0";3;9;556,270000000019;"A";1;0;NA;"A";"red";"black";"parity";9;300;"Windows";"Chrome";"1280x610";1;1;0;0;"28";"female";"I've a degree related to one of these fields.";"Master degree";"right-handed";"German";"Germany"
"OY2";"BRAC1_horiAA_1st0";3;10;444,829999999958;"L";1;0;NA;"L";"blue";"black";"magnit";1;300;"Windows";"Chrome";"1280x610";1;1;1;0;"28";"female";"I've a degree related to one of these fields.";"Master degree";"right-handed";"German";"Germany"
"OY2";"BRAC1_horiAA_1st0";3;11;551,915000000037;"A";1;0;NA;"A";"blue";"black";"magnit";6;300;"Windows";"Chrome";"1280x610";0;1;0;0;"28";"female";"I've a degree related to one of these fields.";"Master degree";"right-handed";"German";"Germany"
"OY2";"BRAC1_horiAA_1st0";3;12;538,005000000354;"L";1;0;NA;"L";"red";"black";"parity";8;300;"Windows";"Chrome";"1280x610";1;1;1;0;"28";"female";"I've a degree related to one of these fields.";"Master degree";"right-handed";"German";"Germany"
"OY2";"BRAC1_horiAA_1st0";3;13;497,054999999818;"A";1;0;NA;"A";"red";"black";"magnit";7;300;"Windows";"Chrome";"1280x610";1;1;0;0;"28";"female";"I've a degree related to one of these fields.";"Master degree";"right-handed";"German";"Germany"
"OY2";"BRAC1_horiAA_1st0";3;14;497,024999999558;"A";1;0;NA;"A";"blue";"black";"magnit";9;300;"Windows";"Chrome";"1280x610";0;0;1;0;"28";"female";"I've a degree related to one of these fields.";"Master degree";"right-handed";"German";"Germany"
"OY2";"BRAC1_horiAA_1st0";3;15;442,614999999874;"L";1;0;NA;"L";"red";"black";"parity";6;300;"Windows";"Chrome";"1280x610";1;1;1;0;"28";"female";"I've a degree related to one of these fields.";"Master degree";"right-handed";"German";"Germany"
"OY2";"BRAC1_horiAA_1st0";3;16;545,26500000013;"A";1;0;NA;"A";"red";"black";"parity";3;300;"Windows";"Chrome";"1280x610";0;1;0;0;"28";"female";"I've a degree related to one of these fields.";"Master degree";"right-handed";"German";"Germany"
"OY2";"BRAC1_horiAA_1st0";3;17;381,870000000228;"L";1;0;NA;"L";"red";"black";"magnit";2;300;"Windows";"Chrome";"1280x610";1;1;0;0;"28";"female";"I've a degree related to one of these fields.";"Master degree";"right-handed";"German";"Germany"
"OY2";"BRAC1_horiAA_1st0";3;18;519,360000000219;"L";1;0;NA;"L";"blue";"black";"magnit";3;300;"Windows";"Chrome";"1280x610";0;0;1;0;"28";"female";"I've a degree related to one of these fields.";"Master degree";"right-handed";"German";"Germany"
"OY2";"BRAC1_horiAA_1st0";3;19;511,630000000005;"A";1;0;NA;"A";"red";"black";"parity";1;300;"Windows";"Chrome";"1280x610";1;1;1;0;"28";"female";"I've a degree related to one of these fields.";"Master degree";"right-handed";"German";"Germany"
"OY2";"BRAC1_horiAA_1st0";3;20;434,580000000075;"A";1;0;NA;"A";"blue";"black";"parity";3;300;"Windows";"Chrome";"1280x610";0;0;1;0;"28";"female";"I've a degree related to one of these fields.";"Master degree";"right-handed";"German";"Germany"
"OY2";"BRAC1_horiAA_1st0";3;21;450,459999999963;"A";1;0;NA;"A";"red";"black";"parity";1;300;"Windows";"Chrome";"1280x610";0;0;1;0;"28";"female";"I've a degree related to one of these fields.";"Master degree";"right-handed";"German";"Germany"
"OY2";"BRAC1_horiAA_1st0";3;22;409,825000000186;"L";1;0;NA;"L";"blue";"black";"parity";4;300;"Windows";"Chrome";"1280x610";0;1;1;0;"28";"female";"I've a degree related to one of these fields.";"Master degree";"right-handed";"German";"Germany"
"OY2";"BRAC1_horiAA_1st0";3;23;444,520000000019;"A";1;0;NA;"A";"red";"black";"magnit";9;300;"Windows";"Chrome";"1280x610";1;1;1;0;"28";"female";"I've a degree related to one of these fields.";"Master degree";"right-handed";"German";"Germany"
"OY2";"BRAC1_horiAA_1st0";3;24;457,75;"A";1;0;NA;"A";"red";"black";"parity";1;300;"Windows";"Chrome";"1280x610";1;0;0;0;"28";"female";"I've a degree related to one of these fields.";"Master degree";"right-handed";"German";"Germany"
"OY2";"BRAC1_horiAA_1st0";3;25;434,315000000061;"A";1;0;NA;"A";"red";"black";"magnit";8;300;"Windows";"Chrome";"1280x610";1;0;0;0;"28";"female";"I've a degree related to one of these fields.";"Master degree";"right-handed";"German";"Germany"
"OY2";"BRAC1_horiAA_1st0";3;26;396,244999999879;"L";1;0;NA;"L";"red";"black";"parity";2;300;"Windows";"Chrome";"1280x610";1;1;0;0;"28";"female";"I've a degree related to one of these fields.";"Master degree";"right-handed";"German";"Germany"
"OY2";"BRAC1_horiAA_1st0";3;27;674,590000000084;"A";1;0;NA;"A";"blue";"black";"magnit";9;300;"Windows";"Chrome";"1280x610";1;1;1;0;"28";"female";"I've a degree related to one of these fields.";"Master degree";"right-handed";"German";"Germany"
"OY2";"BRAC1_horiAA_1st0";3;28;401,119999999995;"L";1;0;NA;"L";"red";"black";"magnit";1;300;"Windows";"Chrome";"1280x610";0;1;1;0;"28";"female";"I've a degree related to one of these fields.";"Master degree";"right-handed";"German";"Germany"
"OY2";"BRAC1_horiAA_1st0";3;29;456,845000000205;"L";1;0;NA;"L";"red";"black";"parity";4;300;"Windows";"Chrome";"1280x610";1;0;0;0;"28";"female";"I've a degree related to one of these fields.";"Master degree";"right-handed";"German";"Germany"
"OY2";"BRAC1_horiAA_1st0";3;30;387,834999999963;"L";1;0;NA;"L";"red";"black";"magnit";1;300;"Windows";"Chrome";"1280x610";1;0;0;0;"28";"female";"I've a degree related to one of these fields.";"Master degree";"right-handed";"German";"Germany"
"OY2";"BRAC1_horiAA_1st0";3;31;394,0349999998;"A";1;0;NA;"A";"blue";"black";"magnit";6;300;"Windows";"Chrome";"1280x610";0;1;1;0;"28";"female";"I've a degree related to one of these fields.";"Master degree";"right-handed";"German";"Germany"
"OY2";"BRAC1_horiAA_1st0";3;32;446,580000000307;"L";1;0;NA;"L";"blue";"black";"parity";2;300;"Windows";"Chrome";"1280x610";1;1;0;0;"28";"female";"I've a degree related to one of these fields.";"Master degree";"right-handed";"German";"Germany"
"OY2";"BRAC1_horiAA_1st0";3;33;542,344999999856;"A";1;0;NA;"A";"red";"black";"parity";9;300;"Windows";"Chrome";"1280x610";0;1;1;0;"28";"female";"I've a degree related to one of these fields.";"Master degree";"right-handed";"German";"Germany"
"OY2";"BRAC1_horiAA_1st0";3;34;410,354999999981;"A";1;0;NA;"A";"red";"black";"magnit";8;300;"Windows";"Chrome";"1280x610";1;0;0;0;"28";"female";"I've a degree related to one of these fields.";"Master degree";"right-handed";"German";"Germany"
"OY2";"BRAC1_horiAA_1st0";3;35;433,829999999958;"L";1;0;NA;"L";"red";"black";"magnit";4;300;"Windows";"Chrome";"1280x610";0;1;0;0;"28";"female";"I've a degree related to one of these fields.";"Master degree";"right-handed";"German";"Germany"
"OY2";"BRAC1_horiAA_1st0";3;36;553,280000000028;"L";1;0;NA;"L";"blue";"black";"parity";8;300;"Windows";"Chrome";"1280x610";1;0;1;0;"28";"female";"I've a degree related to one of these fields.";"Master degree";"right-handed";"German";"Germany"
"OY2";"BRAC1_horiAA_1st0";3;37;509,81500000041;"L";1;0;NA;"L";"red";"black";"parity";4;300;"Windows";"Chrome";"1280x610";0;0;1;0;"28";"female";"I've a degree related to one of these fields.";"Master degree";"right-handed";"German";"Germany"
"OY2";"BRAC1_horiAA_1st0";3;38;454,824999999721;"L";1;0;NA;"L";"blue";"black";"parity";6;300;"Windows";"Chrome";"1280x610";0;0;1;0;"28";"female";"I've a degree related to one of these fields.";"Master degree";"right-handed";"German";"Germany"
"OY2";"BRAC1_horiAA_1st0";3;39;419,925000000163;"A";1;0;NA;"A";"red";"black";"parity";3;300;"Windows";"Chrome";"1280x610";0;1;1;0;"28";"female";"I've a degree related to one of these fields.";"Master degree";"right-handed";"German";"Germany"
"OY2";"BRAC1_horiAA_1st0";3;40;415,335000000196;"A";1;0;NA;"A";"red";"black";"magnit";6;300;"Windows";"Chrome";"1280x610";1;0;0;0;"28";"female";"I've a degree related to one of these fields.";"Master degree";"right-handed";"German";"Germany"
"OY2";"BRAC1_horiAA_1st0";3;41;434,600000000093;"L";1;0;NA;"L";"blue";"black";"magnit";2;300;"Windows";"Chrome";"1280x610";0;1;1;0;"28";"female";"I've a degree related to one of these fields.";"Master degree";"right-handed";"German";"Germany"
"OY2";"BRAC1_horiAA_1st0";3;42;425,214999999735;"A";1;0;NA;"A";"red";"black";"magnit";6;300;"Windows";"Chrome";"1280x610";0;1;1;0;"28";"female";"I've a degree related to one of these fields.";"Master degree";"right-handed";"German";"Germany"
"OY2";"BRAC1_horiAA_1st0";3;43;488,97500000021;"A";1;0;NA;"A";"red";"black";"parity";7;300;"Windows";"Chrome";"1280x610";1;0;0;0;"28";"female";"I've a degree related to one of these fields.";"Master degree";"right-handed";"German";"Germany"
"OY2";"BRAC1_horiAA_1st0";3;44;435,305000000051;"L";1;0;NA;"L";"blue";"black";"parity";2;300;"Windows";"Chrome";"1280x610";0;1;1;0;"28";"female";"I've a degree related to one of these fields.";"Master degree";"right-handed";"German";"Germany"
"OY2";"BRAC1_horiAA_1st0";3;45;441,995000000112;"L";1;0;NA;"L";"blue";"black";"magnit";3;300;"Windows";"Chrome";"1280x610";1;0;0;0;"28";"female";"I've a degree related to one of these fields.";"Master degree";"right-handed";"German";"Germany"
"OY2";"BRAC1_horiAA_1st0";3;46;431,699999999604;"A";1;0;NA;"A";"red";"black";"magnit";8;300;"Windows";"Chrome";"1280x610";0;1;1;0;"28";"female";"I've a degree related to one of these fields.";"Master degree";"right-handed";"German";"Germany"
"OY2";"BRAC1_horiAA_1st0";3;47;420,760000000009;"L";1;0;NA;"L";"red";"black";"parity";2;300;"Windows";"Chrome";"1280x610";1;1;0;0;"28";"female";"I've a degree related to one of these fields.";"Master degree";"right-handed";"German";"Germany"
"OY2";"BRAC1_horiAA_1st0";3;48;568,025000000023;"A";1;0;NA;"A";"blue";"black";"parity";9;300;"Windows";"Chrome";"1280x610";0;1;1;0;"28";"female";"I've a degree related to one of these fields.";"Master degree";"right-handed";"German";"Germany"
"OY2";"BRAC1_horiAA_1st0";3;49;458,460000000312;"L";1;0;NA;"L";"red";"black";"parity";6;300;"Windows";"Chrome";"1280x610";0;1;1;0;"28";"female";"I've a degree related to one of these fields.";"Master degree";"right-handed";"German";"Germany"
"OY2";"BRAC1_horiAA_1st0";3;50;401,184999999707;"A";1;0;NA;"A";"blue";"black";"parity";7;300;"Windows";"Chrome";"1280x610";0;1;1;0;"28";"female";"I've a degree related to one of these fields.";"Master degree";"right-handed";"German";"Germany"
"OY2";"BRAC1_horiAA_1st0";3;51;525,665000000037;"L";1;0;NA;"L";"red";"black";"magnit";2;300;"Windows";"Chrome";"1280x610";1;1;1;0;"28";"female";"I've a degree related to one of these fields.";"Master degree";"right-handed";"German";"Germany"
"OY2";"BRAC1_horiAA_1st0";3;52;521,374999999767;"L";1;0;NA;"L";"red";"black";"parity";8;300;"Windows";"Chrome";"1280x610";1;0;0;0;"28";"female";"I've a degree related to one of these fields.";"Master degree";"right-handed";"German";"Germany"
"OY2";"BRAC1_horiAA_1st0";3;53;447,470000000088;"A";1;0;NA;"A";"blue";"black";"magnit";9;300;"Windows";"Chrome";"1280x610";1;1;1;0;"28";"female";"I've a degree related to one of these fields.";"Master degree";"right-handed";"German";"Germany"
"OY2";"BRAC1_horiAA_1st0";3;54;467,844999999739;"A";1;0;NA;"A";"red";"black";"magnit";7;300;"Windows";"Chrome";"1280x610";0;0;1;0;"28";"female";"I've a degree related to one of these fields.";"Master degree";"right-handed";"German";"Germany"
"OY2";"BRAC1_horiAA_1st0";3;55;412,084999999963;"L";1;0;NA;"L";"red";"black";"parity";4;300;"Windows";"Chrome";"1280x610";1;1;0;0;"28";"female";"I've a degree related to one of these fields.";"Master degree";"right-handed";"German";"Germany"
"OY2";"BRAC1_horiAA_1st0";3;56;623,45999999973;"A";1;0;NA;"A";"blue";"black";"parity";1;300;"Windows";"Chrome";"1280x610";0;1;1;0;"28";"female";"I've a degree related to one of these fields.";"Master degree";"right-handed";"German";"Germany"
"OY2";"BRAC1_horiAA_1st0";3;57;367,584999999963;"L";1;0;NA;"L";"blue";"black";"magnit";3;300;"Windows";"Chrome";"1280x610";1;1;0;0;"28";"female";"I've a degree related to one of these fields.";"Master degree";"right-handed";"German";"Germany"
"OY2";"BRAC1_horiAA_1st0";3;58;378,005000000005;"L";1;0;NA;"L";"blue";"black";"magnit";4;300;"Windows";"Chrome";"1280x610";0;0;0;0;"28";"female";"I've a degree related to one of these fields.";"Master degree";"right-handed";"German";"Germany"
"OY2";"BRAC1_horiAA_1st0";3;59;390,15000000014;"L";1;0;NA;"L";"blue";"black";"parity";6;300;"Windows";"Chrome";"1280x610";1;0;0;0;"28";"female";"I've a degree related to one of these fields.";"Master degree";"right-handed";"German";"Germany"
"OY2";"BRAC1_horiAA_1st0";3;60;474,505000000121;"A";1;0;NA;"A";"blue";"black";"magnit";7;300;"Windows";"Chrome";"1280x610";1;1;0;0;"28";"female";"I've a degree related to one of these fields.";"Master degree";"right-handed";"German";"Germany"
"OY2";"BRAC1_horiAA_1st0";3;61;439,559999999823;"L";1;0;NA;"L";"red";"black";"parity";8;300;"Windows";"Chrome";"1280x610";1;1;1;0;"28";"female";"I've a degree related to one of these fields.";"Master degree";"right-handed";"German";"Germany"
"OY2";"BRAC1_horiAA_1st0";3;62;390,239999999525;"A";1;0;NA;"A";"blue";"black";"parity";9;300;"Windows";"Chrome";"1280x610";0;1;1;0;"28";"female";"I've a degree related to one of these fields.";"Master degree";"right-handed";"German";"Germany"
"OY2";"BRAC1_horiAA_1st0";3;63;511,300000000279;"L";1;0;NA;"L";"blue";"black";"parity";6;300;"Windows";"Chrome";"1280x610";0;1;0;0;"28";"female";"I've a degree related to one of these fields.";"Master degree";"right-handed";"German";"Germany"
"OY2";"BRAC1_horiAA_1st0";3;64;410,60999999987;"L";1;0;NA;"L";"blue";"black";"parity";8;300;"Windows";"Chrome";"1280x610";0;0;0;0;"28";"female";"I've a degree related to one of these fields.";"Master degree";"right-handed";"German";"Germany"
"OY2";"BRAC1_horiAA_1st0";3;65;396,479999999981;"L";1;0;NA;"L";"blue";"black";"magnit";2;300;"Windows";"Chrome";"1280x610";1;0;0;0;"28";"female";"I've a degree related to one of these fields.";"Master degree";"right-handed";"German";"Germany"
"OY2";"BRAC1_horiAA_1st0";3;66;450,780000000028;"L";1;0;NA;"L";"blue";"black";"magnit";4;300;"Windows";"Chrome";"1280x610";0;0;0;0;"28";"female";"I've a degree related to one of these fields.";"Master degree";"right-handed";"German";"Germany"
"OY2";"BRAC1_horiAA_1st0";3;67;405,005000000121;"L";1;0;NA;"L";"red";"black";"magnit";3;300;"Windows";"Chrome";"1280x610";0;0;1;0;"28";"female";"I've a degree related to one of these fields.";"Master degree";"right-handed";"German";"Germany"
"OY2";"BRAC1_horiAA_1st0";3;68;416,634999999776;"A";1;0;NA;"A";"blue";"black";"parity";1;300;"Windows";"Chrome";"1280x610";1;1;1;0;"28";"female";"I've a degree related to one of these fields.";"Master degree";"right-handed";"German";"Germany"
"OY2";"BRAC1_horiAA_1st0";3;69;399,559999999823;"A";1;0;NA;"A";"blue";"black";"parity";3;300;"Windows";"Chrome";"1280x610";0;0;0;0;"28";"female";"I've a degree related to one of these fields.";"Master degree";"right-handed";"German";"Germany"
"OY2";"BRAC1_horiAA_1st0";3;70;488,125000000233;"A";1;0;NA;"A";"blue";"black";"parity";1;300;"Windows";"Chrome";"1280x610";0;0;0;0;"28";"female";"I've a degree related to one of these fields.";"Master degree";"right-handed";"German";"Germany"
"OY2";"BRAC1_horiAA_1st0";3;71;419,870000000112;"L";1;0;NA;"L";"red";"black";"magnit";3;300;"Windows";"Chrome";"1280x610";1;1;1;0;"28";"female";"I've a degree related to one of these fields.";"Master degree";"right-handed";"German";"Germany"
"OY2";"BRAC1_horiAA_1st0";3;72;427,160000000149;"A";1;0;NA;"A";"blue";"black";"magnit";7;300;"Windows";"Chrome";"1280x610";0;1;1;0;"28";"female";"I've a degree related to one of these fields.";"Master degree";"right-handed";"German";"Germany"
"OY2";"BRAC1_horiAA_1st0";3;73;427,065000000177;"L";1;0;NA;"L";"red";"black";"magnit";1;300;"Windows";"Chrome";"1280x610";0;1;1;0;"28";"female";"I've a degree related to one of these fields.";"Master degree";"right-handed";"German";"Germany"
"OY2";"BRAC1_horiAA_1st0";3;74;412,250000000233;"A";1;0;NA;"A";"red";"black";"magnit";9;300;"Windows";"Chrome";"1280x610";0;1;0;0;"28";"female";"I've a degree related to one of these fields.";"Master degree";"right-handed";"German";"Germany"
"OY2";"BRAC1_horiAA_1st0";3;75;469,08499999973;"A";1;0;NA;"A";"blue";"black";"magnit";8;300;"Windows";"Chrome";"1280x610";0;0;1;0;"28";"female";"I've a degree related to one of these fields.";"Master degree";"right-handed";"German";"Germany"
"OY2";"BRAC1_horiAA_1st0";3;76;433,169999999693;"A";1;0;NA;"A";"red";"black";"parity";9;300;"Windows";"Chrome";"1280x610";1;0;1;0;"28";"female";"I've a degree related to one of these fields.";"Master degree";"right-handed";"German";"Germany"
"OY2";"BRAC1_horiAA_1st0";3;77;528,530000000028;"A";1;0;NA;"A";"blue";"black";"parity";7;300;"Windows";"Chrome";"1280x610";0;0;1;0;"28";"female";"I've a degree related to one of these fields.";"Master degree";"right-handed";"German";"Germany"
"OY2";"BRAC1_horiAA_1st0";3;78;440,214999999618;"A";1;0;NA;"A";"red";"black";"magnit";9;300;"Windows";"Chrome";"1280x610";1;0;1;0;"28";"female";"I've a degree related to one of these fields.";"Master degree";"right-handed";"German";"Germany"
"OY2";"BRAC1_horiAA_1st0";3;79;445,959999999963;"L";1;0;NA;"L";"blue";"black";"magnit";2;300;"Windows";"Chrome";"1280x610";0;1;1;0;"28";"female";"I've a degree related to one of these fields.";"Master degree";"right-handed";"German";"Germany"
"OY2";"BRAC1_horiAA_1st0";3;80;408,259999999544;"L";1;0;NA;"L";"blue";"black";"magnit";1;300;"Windows";"Chrome";"1280x610";0;0;0;0;"28";"female";"I've a degree related to one of these fields.";"Master degree";"right-handed";"German";"Germany"
"OY2";"BRAC1_horiAA_1st0";3;81;448,660000000149;"L";1;0;NA;"L";"blue";"black";"parity";8;300;"Windows";"Chrome";"1280x610";1;0;0;0;"28";"female";"I've a degree related to one of these fields.";"Master degree";"right-handed";"German";"Germany"
"OY2";"BRAC1_horiAA_1st0";3;82;585,574999999953;"A";1;0;NA;"A";"blue";"black";"parity";9;300;"Windows";"Chrome";"1280x610";0;1;0;0;"28";"female";"I've a degree related to one of these fields.";"Master degree";"right-handed";"German";"Germany"
"OY2";"BRAC1_horiAA_1st0";3;83;497,935000000289;"L";1;0;NA;"L";"blue";"black";"parity";4;300;"Windows";"Chrome";"1280x610";0;1;0;0;"28";"female";"I've a degree related to one of these fields.";"Master degree";"right-handed";"German";"Germany"
"OY2";"BRAC1_horiAA_1st0";3;84;458,030000000261;"A";1;0;NA;"A";"red";"black";"magnit";7;300;"Windows";"Chrome";"1280x610";1;1;1;0;"28";"female";"I've a degree related to one of these fields.";"Master degree";"right-handed";"German";"Germany"
"OY2";"BRAC1_horiAA_1st0";3;85;409,260000000009;"L";1;0;NA;"L";"red";"black";"magnit";2;300;"Windows";"Chrome";"1280x610";0;1;0;0;"28";"female";"I've a degree related to one of these fields.";"Master degree";"right-handed";"German";"Germany"
"OY2";"BRAC1_horiAA_1st0";3;86;555,875;"L";1;0;NA;"L";"red";"black";"magnit";4;300;"Windows";"Chrome";"1280x610";0;0;0;0;"28";"female";"I've a degree related to one of these fields.";"Master degree";"right-handed";"German";"Germany"
"OY2";"BRAC1_horiAA_1st0";3;87;384,439999999944;"L";1;0;NA;"L";"blue";"black";"parity";2;300;"Windows";"Chrome";"1280x610";1;0;1;0;"28";"female";"I've a degree related to one of these fields.";"Master degree";"right-handed";"German";"Germany"
"OY2";"BRAC1_horiAA_1st0";3;88;481,919999999693;"A";1;0;NA;"A";"blue";"black";"magnit";6;300;"Windows";"Chrome";"1280x610";1;1;0;0;"28";"female";"I've a degree related to one of these fields.";"Master degree";"right-handed";"German";"Germany"
"OY2";"BRAC1_horiAA_1st0";3;89;431,83499999973;"A";1;0;NA;"A";"red";"black";"parity";3;300;"Windows";"Chrome";"1280x610";1;0;1;0;"28";"female";"I've a degree related to one of these fields.";"Master degree";"right-handed";"German";"Germany"
"OY2";"BRAC1_horiAA_1st0";3;90;435,075000000419;"L";1;0;NA;"L";"blue";"black";"magnit";1;300;"Windows";"Chrome";"1280x610";1;1;1;0;"28";"female";"I've a degree related to one of these fields.";"Master degree";"right-handed";"German";"Germany"
"OY2";"BRAC1_horiAA_1st0";3;91;382,175000000279;"A";1;0;NA;"A";"red";"black";"parity";7;300;"Windows";"Chrome";"1280x610";1;1;1;0;"28";"female";"I've a degree related to one of these fields.";"Master degree";"right-handed";"German";"Germany"
"OY2";"BRAC1_horiAA_1st0";3;92;414,359999999637;"L";1;0;NA;"L";"blue";"black";"parity";4;300;"Windows";"Chrome";"1280x610";0;1;1;0;"28";"female";"I've a degree related to one of these fields.";"Master degree";"right-handed";"German";"Germany"
"OY2";"BRAC1_horiAA_1st0";3;93;492,910000000149;"L";1;0;NA;"L";"red";"black";"magnit";3;300;"Windows";"Chrome";"1280x610";1;0;1;0;"28";"female";"I've a degree related to one of these fields.";"Master degree";"right-handed";"German";"Germany"
"OY2";"BRAC1_horiAA_1st0";3;94;481,505000000121;"A";1;0;NA;"A";"blue";"black";"parity";7;300;"Windows";"Chrome";"1280x610";1;1;1;0;"28";"female";"I've a degree related to one of these fields.";"Master degree";"right-handed";"German";"Germany"
"OY2";"BRAC1_horiAA_1st0";3;95;430,22499999986;"A";1;0;NA;"A";"blue";"black";"magnit";8;300;"Windows";"Chrome";"1280x610";1;0;0;0;"28";"female";"I've a degree related to one of these fields.";"Master degree";"right-handed";"German";"Germany"
"SN4";"BRAC1_vertAA_1st0";0;0;1468,0300001055;"A";1;0;NA;"A";"red";"black";"parity";7;0;"Windows";"Chrome";"1280x610";99;99;99;99;"22";"female";"I've studied at least one of these disciplines (school or university)";"High school diploma";"right-handed";"German";"Germany"
"SN4";"BRAC1_vertAA_1st0";0;1;640,170000027865;"L";1;0;NA;"L";"red";"black";"parity";8;0;"Windows";"Chrome";"1280x610";0;1;0;0;"22";"female";"I've studied at least one of these disciplines (school or university)";"High school diploma";"right-handed";"German";"Germany"
"SN4";"BRAC1_vertAA_1st0";0;2;1390,95999998972;"A";1;0;NA;"A";"blue";"black";"magnit";6;0;"Windows";"Chrome";"1280x610";1;1;1;0;"22";"female";"I've studied at least one of these disciplines (school or university)";"High school diploma";"right-handed";"German";"Germany"
"SN4";"BRAC1_vertAA_1st0";0;3;607,330000028014;"L";1;0;NA;"L";"blue";"black";"magnit";1;0;"Windows";"Chrome";"1280x610";0;1;0;0;"22";"female";"I've studied at least one of these disciplines (school or university)";"High school diploma";"right-handed";"German";"Germany"
"SN4";"BRAC1_vertAA_1st0";0;4;781,914999941364;"L";1;0;NA;"L";"blue";"black";"parity";4;0;"Windows";"Chrome";"1280x610";1;0;0;0;"22";"female";"I've studied at least one of these disciplines (school or university)";"High school diploma";"right-handed";"German";"Germany"
"SN4";"BRAC1_vertAA_1st0";0;5;1187,81999999192;"L";1;0;NA;"L";"red";"black";"parity";6;0;"Windows";"Chrome";"1280x610";0;0;1;0;"22";"female";"I've studied at least one of these disciplines (school or university)";"High school diploma";"right-handed";"German";"Germany"
"SN4";"BRAC1_vertAA_1st0";0;6;722,239999915473;"L";1;0;NA;"L";"red";"black";"parity";8;0;"Windows";"Chrome";"1280x610";0;0;0;0;"22";"female";"I've studied at least one of these disciplines (school or university)";"High school diploma";"right-handed";"German";"Germany"
"SN4";"BRAC1_vertAA_1st0";0;7;778,249999973923;"L";1;0;NA;"L";"blue";"black";"parity";6;0;"Windows";"Chrome";"1280x610";0;0;1;0;"22";"female";"I've studied at least one of these disciplines (school or university)";"High school diploma";"right-handed";"German";"Germany"
"SN4";"BRAC1_vertAA_1st0";0;8;667,210000101477;"L";1;0;NA;"L";"red";"black";"parity";2;0;"Windows";"Chrome";"1280x610";0;0;1;0;"22";"female";"I've studied at least one of these disciplines (school or university)";"High school diploma";"right-handed";"German";"Germany"
"SN4";"BRAC1_vertAA_1st0";0;9;962,859999970533;"A";1;0;NA;"A";"blue";"black";"magnit";8;0;"Windows";"Chrome";"1280x610";1;1;1;0;"22";"female";"I've studied at least one of these disciplines (school or university)";"High school diploma";"right-handed";"German";"Germany"
"SN4";"BRAC1_vertAA_1st0";0;10;1365,66000001039;"A";1;0;NA;"A";"red";"black";"magnit";7;0;"Windows";"Chrome";"1280x610";0;0;1;0;"22";"female";"I've studied at least one of these disciplines (school or university)";"High school diploma";"right-handed";"German";"Germany"
"SN4";"BRAC1_vertAA_1st0";0;11;728,40499994345;"L";1;0;NA;"L";"blue";"black";"magnit";4;0;"Windows";"Chrome";"1280x610";0;1;1;0;"22";"female";"I've studied at least one of these disciplines (school or university)";"High school diploma";"right-handed";"German";"Germany"
"SN4";"BRAC1_vertAA_1st0";0;12;903,874999959953;"A";1;0;NA;"A";"red";"black";"parity";1;0;"Windows";"Chrome";"1280x610";1;1;1;0;"22";"female";"I've studied at least one of these disciplines (school or university)";"High school diploma";"right-handed";"German";"Germany"
"SN4";"BRAC1_vertAA_1st0";0;13;1158,6149999639;"A";1;1;NA;"L";"blue";"black";"parity";6;0;"Windows";"Chrome";"1280x610";0;1;1;0;"22";"female";"I've studied at least one of these disciplines (school or university)";"High school diploma";"right-handed";"German";"Germany"
"SN4";"BRAC1_vertAA_1st0";0;14;795,195000013337;"A";1;0;NA;"A";"blue";"black";"parity";9;0;"Windows";"Chrome";"1280x610";0;1;0;1;"22";"female";"I've studied at least one of these disciplines (school or university)";"High school diploma";"right-handed";"German";"Germany"
"SN4";"BRAC1_vertAA_1st0";0;15;598,624999984168;"L";1;0;NA;"L";"blue";"black";"parity";2;0;"Windows";"Chrome";"1280x610";0;1;0;0;"22";"female";"I've studied at least one of these disciplines (school or university)";"High school diploma";"right-handed";"German";"Germany"
"SN4";"BRAC1_vertAA_1st0";0;16;633,894999977201;"L";1;1;NA;"A";"blue";"black";"parity";1;0;"Windows";"Chrome";"1280x610";0;1;0;0;"22";"female";"I've studied at least one of these disciplines (school or university)";"High school diploma";"right-handed";"German";"Germany"
"SN4";"BRAC1_vertAA_1st0";0;17;1365,69500004407;"L";1;0;NA;"L";"blue";"black";"parity";4;0;"Windows";"Chrome";"1280x610";0;1;0;1;"22";"female";"I've studied at least one of these disciplines (school or university)";"High school diploma";"right-handed";"German";"Germany"
"SN4";"BRAC1_vertAA_1st0";0;18;864,989999914542;"A";1;1;NA;"L";"red";"black";"magnit";2;0;"Windows";"Chrome";"1280x610";1;0;1;0;"22";"female";"I've studied at least one of these disciplines (school or university)";"High school diploma";"right-handed";"German";"Germany"
"SN4";"BRAC1_vertAA_1st0";0;19;1375,62999990769;"L";1;0;NA;"L";"blue";"black";"parity";8;0;"Windows";"Chrome";"1280x610";1;0;1;1;"22";"female";"I've studied at least one of these disciplines (school or university)";"High school diploma";"right-handed";"German";"Germany"
"SN4";"BRAC1_vertAA_1st0";0;20;961,619999958202;"L";1;0;NA;"L";"red";"black";"magnit";1;0;"Windows";"Chrome";"1280x610";1;0;1;0;"22";"female";"I've studied at least one of these disciplines (school or university)";"High school diploma";"right-handed";"German";"Germany"
"SN4";"BRAC1_vertAA_1st0";0;21;1226,26000002492;"A";1;0;NA;"A";"blue";"black";"parity";9;0;"Windows";"Chrome";"1280x610";1;1;1;0;"22";"female";"I've studied at least one of these disciplines (school or university)";"High school diploma";"right-handed";"German";"Germany"
"SN4";"BRAC1_vertAA_1st0";0;22;1102,3999999743;"L";1;1;NA;"A";"blue";"black";"magnit";7;0;"Windows";"Chrome";"1280x610";1;0;0;0;"22";"female";"I've studied at least one of these disciplines (school or university)";"High school diploma";"right-handed";"German";"Germany"
"SN4";"BRAC1_vertAA_1st0";0;23;1458,16499995999;"L";1;1;NA;"A";"red";"black";"parity";9;0;"Windows";"Chrome";"1280x610";1;0;1;1;"22";"female";"I've studied at least one of these disciplines (school or university)";"High school diploma";"right-handed";"German";"Germany"
"SN4";"BRAC1_vertAA_1st0";0;24;1884,33499995153;"A";1;0;NA;"A";"blue";"black";"parity";3;0;"Windows";"Chrome";"1280x610";0;0;1;1;"22";"female";"I've studied at least one of these disciplines (school or university)";"High school diploma";"right-handed";"German";"Germany"
"SN4";"BRAC1_vertAA_1st0";0;25;1054,11500006448;"A";1;0;NA;"A";"red";"black";"magnit";9;0;"Windows";"Chrome";"1280x610";1;0;1;0;"22";"female";"I've studied at least one of these disciplines (school or university)";"High school diploma";"right-handed";"German";"Germany"
