"pp";"counterbalance";"blockNum";"trialNum";"rt";"Response";"Attempt";"error";"Timed.Out";"ANSWER";"cuecolor";"framecolor";"task";"stimulus";"cocoa";"task_R";"ANSWER_R";"framecolor_R";"error_R";"prolific";"age";"sex";"psyKnowledge";"education";"handedness";"motherTongue";"country"
"5d1cfc4ee950480015366f7b";"BRAC2_horiLL_1st0";0;0;1768,24999999371;"A";"1";1;NA;"L";"black";"red";"parity";1;"0";"99";"99";"99";99;"1";21;"female";"Some knowledge as amateur";"Some university/higher education but no degree";"right-handed";"polish";"poland"
"5d1cfc4ee950480015366f7b";"BRAC2_horiLL_1st0";0;1;765,330000023823;"L";"1";0;NA;"L";"black";"blue";"magnit";8;"0";"1";"0";"1";1;"1";21;"female";"Some knowledge as amateur";"Some university/higher education but no degree";"right-handed";"polish";"poland"
"5d1cfc4ee950480015366f7b";"BRAC2_horiLL_1st0";0;2;1151,3949999935;"A";"1";0;NA;"A";"black";"red";"magnit";3;"0";"0";"1";"1";0;"1";21;"female";"Some knowledge as amateur";"Some university/higher education but no degree";"right-handed";"polish";"poland"
"5d1cfc4ee950480015366f7b";"BRAC2_horiLL_1st0";0;3;169,079999992391;"L";"1";0;NA;"L";"black";"blue";"magnit";6;"0";"0";"1";"1";0;"1";21;"female";"Some knowledge as amateur";"Some university/higher education but no degree";"right-handed";"polish";"poland"
"5d1cfc4ee950480015366f7b";"BRAC2_horiLL_1st0";0;4;520,770000002813;"A";"1";0;NA;"A";"black";"red";"magnit";1;"0";"0";"1";"1";0;"1";21;"female";"Some knowledge as amateur";"Some university/higher education but no degree";"right-handed";"polish";"poland"
"5d1cfc4ee950480015366f7b";"BRAC2_horiLL_1st0";0;5;290,29500001343;"L";"1";0;NA;"L";"black";"red";"parity";7;"0";"1";"1";"0";0;"1";21;"female";"Some knowledge as amateur";"Some university/higher education but no degree";"right-handed";"polish";"poland"
"5d1cfc4ee950480015366f7b";"BRAC2_horiLL_1st0";0;6;529,464999999618;"A";"1";0;NA;"A";"black";"blue";"magnit";4;"0";"1";"1";"1";0;"1";21;"female";"Some knowledge as amateur";"Some university/higher education but no degree";"right-handed";"polish";"poland"
"5d1cfc4ee950480015366f7b";"BRAC2_horiLL_1st0";0;7;676,365000021178;"A";"1";0;NA;"A";"black";"red";"magnit";1;"0";"0";"0";"1";0;"1";21;"female";"Some knowledge as amateur";"Some university/higher education but no degree";"right-handed";"polish";"poland"
"5d1cfc4ee950480015366f7b";"BRAC2_horiLL_1st0";0;8;484,230000001844;"A";"1";0;NA;"A";"black";"red";"parity";4;"0";"1";"0";"0";0;"1";21;"female";"Some knowledge as amateur";"Some university/higher education but no degree";"right-handed";"polish";"poland"
"5d1cfc4ee950480015366f7b";"BRAC2_horiLL_1st0";0;9;432,06999998074;"L";"1";0;NA;"L";"black";"red";"magnit";6;"0";"1";"1";"0";0;"1";21;"female";"Some knowledge as amateur";"Some university/higher education but no degree";"right-handed";"polish";"poland"
"5d1cfc4ee950480015366f7b";"BRAC2_horiLL_1st0";0;10;881,705000007059;"A";"1";0;NA;"A";"black";"blue";"magnit";1;"0";"0";"1";"1";0;"1";21;"female";"Some knowledge as amateur";"Some university/higher education but no degree";"right-handed";"polish";"poland"
"5d1cfc4ee950480015366f7b";"BRAC2_horiLL_1st0";0;11;556,264999991981;"L";"1";0;NA;"L";"black";"blue";"magnit";7;"0";"0";"1";"0";0;"1";21;"female";"Some knowledge as amateur";"Some university/higher education but no degree";"right-handed";"polish";"poland"
"5d1cfc4ee950480015366f7b";"BRAC2_horiLL_1st0";0;12;397,67999999458;"A";"1";0;NA;"A";"black";"blue";"parity";8;"0";"1";"1";"0";0;"1";21;"female";"Some knowledge as amateur";"Some university/higher education but no degree";"right-handed";"polish";"poland"
"5d1cfc4ee950480015366f7b";"BRAC2_horiLL_1st0";0;13;771,314999990864;"L";"1";0;NA;"L";"black";"red";"magnit";6;"0";"1";"1";"1";0;"1";21;"female";"Some knowledge as amateur";"Some university/higher education but no degree";"right-handed";"polish";"poland"
"5d1cfc4ee950480015366f7b";"BRAC2_horiLL_1st0";0;14;737,649999995483;"A";"1";0;NA;"A";"black";"red";"parity";8;"0";"1";"1";"0";0;"1";21;"female";"Some knowledge as amateur";"Some university/higher education but no degree";"right-handed";"polish";"poland"
"5d1cfc4ee950480015366f7b";"BRAC2_horiLL_1st0";0;15;804,284999991069;"A";"1";0;NA;"A";"black";"blue";"magnit";4;"0";"1";"0";"1";0;"1";21;"female";"Some knowledge as amateur";"Some university/higher education but no degree";"right-handed";"polish";"poland"
"5d1cfc4ee950480015366f7b";"BRAC2_horiLL_1st0";0;16;477,125000004889;"L";"1";1;NA;"A";"black";"blue";"parity";6;"0";"1";"0";"0";0;"1";21;"female";"Some knowledge as amateur";"Some university/higher education but no degree";"right-handed";"polish";"poland"
"5d1cfc4ee950480015366f7b";"BRAC2_horiLL_1st0";0;17;883,104999986244;"L";"1";1;NA;"A";"black";"red";"parity";4;"0";"0";"0";"1";1;"1";21;"female";"Some knowledge as amateur";"Some university/higher education but no degree";"right-handed";"polish";"poland"
"5d1cfc4ee950480015366f7b";"BRAC2_horiLL_1st0";0;18;565,180000005057;"L";"1";1;NA;"A";"black";"red";"parity";8;"0";"0";"0";"0";1;"1";21;"female";"Some knowledge as amateur";"Some university/higher education but no degree";"right-handed";"polish";"poland"
"5d1cfc4ee950480015366f7b";"BRAC2_horiLL_1st0";0;19;620,855000015581;"A";"1";0;NA;"A";"black";"blue";"parity";4;"0";"0";"0";"1";1;"1";21;"female";"Some knowledge as amateur";"Some university/higher education but no degree";"right-handed";"polish";"poland"
"5d1cfc4ee950480015366f7b";"BRAC2_horiLL_1st0";0;20;475,050000008196;"A";"1";1;NA;"L";"black";"blue";"parity";3;"0";"0";"1";"0";0;"1";21;"female";"Some knowledge as amateur";"Some university/higher education but no degree";"right-handed";"polish";"poland"
"5d1cfc4ee950480015366f7b";"BRAC2_horiLL_1st0";0;21;348,754999984521;"L";"1";1;NA;"A";"black";"red";"parity";2;"0";"0";"1";"1";1;"1";21;"female";"Some knowledge as amateur";"Some university/higher education but no degree";"right-handed";"polish";"poland"
"5d1cfc4ee950480015366f7b";"BRAC2_horiLL_1st0";0;22;538,510000013048;"A";"1";1;NA;"L";"black";"blue";"parity";7;"0";"0";"1";"1";1;"1";21;"female";"Some knowledge as amateur";"Some university/higher education but no degree";"right-handed";"polish";"poland"
"5d1cfc4ee950480015366f7b";"BRAC2_horiLL_1st0";0;23;411,619999998948;"A";"1";1;NA;"L";"black";"red";"parity";3;"0";"0";"0";"1";1;"1";21;"female";"Some knowledge as amateur";"Some university/higher education but no degree";"right-handed";"polish";"poland"
"5d1cfc4ee950480015366f7b";"BRAC2_horiLL_1st0";0;24;455,314999999246;"A";"1";0;NA;"A";"black";"blue";"magnit";2;"0";"1";"1";"1";1;"1";21;"female";"Some knowledge as amateur";"Some university/higher education but no degree";"right-handed";"polish";"poland"
"5d1cfc4ee950480015366f7b";"BRAC2_horiLL_1st0";0;25;432,86500000977;"L";"1";1;NA;"A";"black";"blue";"parity";8;"0";"1";"0";"0";0;"1";21;"female";"Some knowledge as amateur";"Some university/higher education but no degree";"right-handed";"polish";"poland"
"5d1cfc4ee950480015366f7b";"BRAC2_horiLL_1st0";0;26;538,695000024745;"A";"1";0;NA;"A";"black";"blue";"parity";2;"0";"0";"0";"0";1;"1";21;"female";"Some knowledge as amateur";"Some university/higher education but no degree";"right-handed";"polish";"poland"
"5d1cfc4ee950480015366f7b";"BRAC2_horiLL_1st0";0;27;490,049999993062;"L";"1";0;NA;"L";"black";"red";"magnit";7;"0";"1";"1";"1";0;"1";21;"female";"Some knowledge as amateur";"Some university/higher education but no degree";"right-handed";"polish";"poland"
"5d1cfc4ee950480015366f7b";"BRAC2_horiLL_1st0";0;28;524,479999992764;"A";"1";0;NA;"A";"black";"blue";"magnit";2;"0";"0";"1";"1";0;"1";21;"female";"Some knowledge as amateur";"Some university/higher education but no degree";"right-handed";"polish";"poland"
"5d1cfc4ee950480015366f7b";"BRAC2_horiLL_1st0";0;29;493,965000001481;"L";"1";0;NA;"L";"black";"red";"magnit";7;"0";"0";"1";"1";0;"1";21;"female";"Some knowledge as amateur";"Some university/higher education but no degree";"right-handed";"polish";"poland"
"5d1cfc4ee950480015366f7b";"BRAC2_horiLL_1st0";0;30;469,645000004675;"A";"1";0;NA;"A";"black";"red";"magnit";2;"0";"0";"1";"0";0;"1";21;"female";"Some knowledge as amateur";"Some university/higher education but no degree";"right-handed";"polish";"poland"
"5d1cfc4ee950480015366f7b";"BRAC2_horiLL_1st0";0;31;322,924999985844;"L";"1";0;NA;"L";"black";"red";"parity";7;"0";"1";"1";"0";0;"1";21;"female";"Some knowledge as amateur";"Some university/higher education but no degree";"right-handed";"polish";"poland"
"5d1cfc4ee950480015366f7b";"BRAC2_horiLL_1st0";0;32;437,914999987697;"A";"1";0;NA;"A";"black";"blue";"parity";2;"0";"0";"1";"1";0;"1";21;"female";"Some knowledge as amateur";"Some university/higher education but no degree";"right-handed";"polish";"poland"
"5d1cfc4ee950480015366f7b";"BRAC2_horiLL_1st0";0;33;374,544999998761;"L";"1";1;NA;"A";"black";"blue";"magnit";3;"0";"1";"0";"0";0;"1";21;"female";"Some knowledge as amateur";"Some university/higher education but no degree";"right-handed";"polish";"poland"
"5d1cfc4ee950480015366f7b";"BRAC2_horiLL_1st0";0;34;977,480000001378;"A";"1";1;NA;"L";"black";"red";"magnit";8;"0";"0";"1";"1";1;"1";21;"female";"Some knowledge as amateur";"Some university/higher education but no degree";"right-handed";"polish";"poland"
"5d1cfc4ee950480015366f7b";"BRAC2_horiLL_1st0";0;35;495,135000004666;"L";"1";0;NA;"L";"black";"blue";"parity";9;"0";"1";"0";"1";1;"1";21;"female";"Some knowledge as amateur";"Some university/higher education but no degree";"right-handed";"polish";"poland"
"5d1cfc4ee950480015366f7b";"BRAC2_horiLL_1st0";0;36;388,40500000515;"A";"1";1;NA;"L";"black";"blue";"parity";3;"0";"0";"0";"0";0;"1";21;"female";"Some knowledge as amateur";"Some university/higher education but no degree";"right-handed";"polish";"poland"
"5d1cfc4ee950480015366f7b";"BRAC2_horiLL_1st0";0;37;491,269999998622;"L";"1";1;NA;"A";"black";"blue";"parity";6;"0";"0";"1";"0";1;"1";21;"female";"Some knowledge as amateur";"Some university/higher education but no degree";"right-handed";"polish";"poland"
"5d1cfc4ee950480015366f7b";"BRAC2_horiLL_1st0";0;38;593,785000004573;"A";"1";0;NA;"A";"black";"blue";"magnit";1;"0";"1";"0";"0";1;"1";21;"female";"Some knowledge as amateur";"Some university/higher education but no degree";"right-handed";"polish";"poland"
"5d1cfc4ee950480015366f7b";"BRAC2_horiLL_1st0";0;39;1041,4049999963;"A";"1";1;NA;"L";"black";"red";"parity";7;"0";"1";"1";"1";0;"1";21;"female";"Some knowledge as amateur";"Some university/higher education but no degree";"right-handed";"polish";"poland"
"5d1cfc4ee950480015366f7b";"BRAC2_horiLL_1st0";0;40;1715,80500001437;"A";"1";0;NA;"A";"black";"red";"magnit";4;"0";"1";"1";"0";1;"1";21;"female";"Some knowledge as amateur";"Some university/higher education but no degree";"right-handed";"polish";"poland"
"5d1cfc4ee950480015366f7b";"BRAC2_horiLL_1st0";0;41;1196,6249999823;"A";"1";0;NA;"A";"black";"blue";"parity";2;"0";"1";"0";"1";0;"1";21;"female";"Some knowledge as amateur";"Some university/higher education but no degree";"right-handed";"polish";"poland"
"5d1cfc4ee950480015366f7b";"BRAC2_horiLL_1st0";0;42;542,474999994738;"A";"1";1;NA;"L";"black";"red";"parity";1;"0";"0";"1";"1";0;"1";21;"female";"Some knowledge as amateur";"Some university/higher education but no degree";"right-handed";"polish";"poland"
"5d1cfc4ee950480015366f7b";"BRAC2_horiLL_1st0";0;43;802,635000000009;"L";"1";0;NA;"L";"black";"red";"magnit";6;"0";"1";"0";"0";1;"1";21;"female";"Some knowledge as amateur";"Some university/higher education but no degree";"right-handed";"polish";"poland"
"5d1cfc4ee950480015366f7b";"BRAC2_horiLL_1st0";0;44;480,999999999767;"A";"1";0;NA;"A";"black";"blue";"parity";4;"0";"1";"1";"1";0;"1";21;"female";"Some knowledge as amateur";"Some university/higher education but no degree";"right-handed";"polish";"poland"
"5d1cfc4ee950480015366f7b";"BRAC2_horiLL_1st0";0;45;427,460000006249;"A";"1";1;NA;"L";"black";"blue";"parity";1;"0";"0";"1";"0";0;"1";21;"female";"Some knowledge as amateur";"Some university/higher education but no degree";"right-handed";"polish";"poland"
"5d1cfc4ee950480015366f7b";"BRAC2_horiLL_1st0";0;46;902,035000006435;"L";"1";1;NA;"A";"black";"red";"magnit";4;"0";"1";"1";"1";1;"1";21;"female";"Some knowledge as amateur";"Some university/higher education but no degree";"right-handed";"polish";"poland"
"5d1cfc4ee950480015366f7b";"BRAC2_horiLL_1st0";0;47;1419,71000001649;"A";"1";1;NA;"L";"black";"blue";"magnit";8;"0";"0";"1";"1";1;"1";21;"female";"Some knowledge as amateur";"Some university/higher education but no degree";"right-handed";"polish";"poland"
"5d1cfc4ee950480015366f7b";"BRAC2_horiLL_1st0";0;48;812,024999991991;"A";"1";1;NA;"L";"black";"blue";"magnit";6;"0";"0";"0";"0";1;"1";21;"female";"Some knowledge as amateur";"Some university/higher education but no degree";"right-handed";"polish";"poland"
"5d1cfc4ee950480015366f7b";"BRAC2_horiLL_1st0";0;49;378,884999983711;"A";"1";0;NA;"A";"black";"red";"magnit";4;"0";"0";"1";"1";1;"1";21;"female";"Some knowledge as amateur";"Some university/higher education but no degree";"right-handed";"polish";"poland"
"5d1cfc4ee950480015366f7b";"BRAC2_horiLL_1st0";0;50;548,74500000733;"A";"1";1;NA;"L";"black";"blue";"parity";1;"0";"1";"1";"1";0;"1";21;"female";"Some knowledge as amateur";"Some university/higher education but no degree";"right-handed";"polish";"poland"
"5d1cfc4ee950480015366f7b";"BRAC2_horiLL_1st0";0;51;531,365000002552;"A";"1";1;NA;"L";"black";"red";"parity";9;"0";"0";"0";"1";1;"1";21;"female";"Some knowledge as amateur";"Some university/higher education but no degree";"right-handed";"polish";"poland"
"5d1cfc4ee950480015366f7b";"BRAC2_horiLL_1st0";0;52;743,784999998752;"L";"1";0;NA;"L";"black";"blue";"parity";1;"0";"0";"0";"1";1;"1";21;"female";"Some knowledge as amateur";"Some university/higher education but no degree";"right-handed";"polish";"poland"
"5d1cfc4ee950480015366f7b";"BRAC2_horiLL_1st0";0;53;1119,47499998496;"L";"1";1;NA;"A";"black";"blue";"parity";6;"0";"0";"1";"0";0;"1";21;"female";"Some knowledge as amateur";"Some university/higher education but no degree";"right-handed";"polish";"poland"
"5d1cfc4ee950480015366f7b";"BRAC2_horiLL_1st0";0;54;602,410000021337;"A";"1";1;NA;"L";"black";"red";"magnit";9;"0";"1";"1";"1";1;"1";21;"female";"Some knowledge as amateur";"Some university/higher education but no degree";"right-handed";"polish";"poland"
"5d1cfc4ee950480015366f7b";"BRAC2_horiLL_1st0";0;55;675,099999993108;"A";"1";0;NA;"A";"black";"blue";"magnit";4;"0";"0";"1";"1";1;"1";21;"female";"Some knowledge as amateur";"Some university/higher education but no degree";"right-handed";"polish";"poland"
"5d1cfc4ee950480015366f7b";"BRAC2_horiLL_1st0";0;56;545,484999980545;"L";"1";0;NA;"L";"black";"blue";"magnit";9;"0";"0";"1";"0";0;"1";21;"female";"Some knowledge as amateur";"Some university/higher education but no degree";"right-handed";"polish";"poland"
"5d1cfc4ee950480015366f7b";"BRAC2_horiLL_1st0";0;57;768,605000019306;"A";"1";0;NA;"A";"black";"red";"parity";6;"0";"1";"1";"1";0;"1";21;"female";"Some knowledge as amateur";"Some university/higher education but no degree";"right-handed";"polish";"poland"
"5d1cfc4ee950480015366f7b";"BRAC2_horiLL_1st0";0;58;645,170000003418;"A";"1";0;NA;"A";"black";"blue";"magnit";3;"0";"1";"0";"1";0;"1";21;"female";"Some knowledge as amateur";"Some university/higher education but no degree";"right-handed";"polish";"poland"
"5d1cfc4ee950480015366f7b";"BRAC2_horiLL_1st0";0;59;1452,43499998469;"A";"1";1;NA;"L";"black";"blue";"parity";9;"0";"1";"1";"0";0;"1";21;"female";"Some knowledge as amateur";"Some university/higher education but no degree";"right-handed";"polish";"poland"
"5d1cfc4ee950480015366f7b";"BRAC2_horiLL_1st0";0;60;676,689999992959;"L";"1";0;NA;"L";"black";"blue";"magnit";7;"0";"1";"0";"0";1;"1";21;"female";"Some knowledge as amateur";"Some university/higher education but no degree";"right-handed";"polish";"poland"
"5d1cfc4ee950480015366f7b";"BRAC2_horiLL_1st0";0;61;2433,35000000661;"L";"1";0;NA;"L";"black";"red";"magnit";8;"0";"0";"0";"1";0;"1";21;"female";"Some knowledge as amateur";"Some university/higher education but no degree";"right-handed";"polish";"poland"
"5d1cfc4ee950480015366f7b";"BRAC2_horiLL_1st0";0;62;1044,53499999363;"A";"1";1;NA;"L";"black";"red";"parity";9;"0";"1";"0";"0";0;"1";21;"female";"Some knowledge as amateur";"Some university/higher education but no degree";"right-handed";"polish";"poland"
"5d1cfc4ee950480015366f7b";"BRAC2_horiLL_1st0";0;63;623,480000009295;"A";"1";0;NA;"A";"black";"red";"magnit";2;"0";"1";"1";"0";1;"1";21;"female";"Some knowledge as amateur";"Some university/higher education but no degree";"right-handed";"polish";"poland"
"5d1cfc4ee950480015366f7b";"BRAC2_horiLL_1st0";0;64;839,260000007926;"L";"1";0;NA;"L";"black";"blue";"parity";7;"0";"1";"1";"1";0;"1";21;"female";"Some knowledge as amateur";"Some university/higher education but no degree";"right-handed";"polish";"poland"
"5d1cfc4ee950480015366f7b";"BRAC2_horiLL_1st0";0;65;697,899999999208;"L";"1";1;NA;"A";"black";"blue";"parity";4;"0";"0";"1";"0";0;"1";21;"female";"Some knowledge as amateur";"Some university/higher education but no degree";"right-handed";"polish";"poland"
"5d1cfc4ee950480015366f7b";"BRAC2_horiLL_1st0";0;66;522,25000000908;"A";"1";0;NA;"A";"black";"red";"magnit";1;"0";"1";"0";"1";1;"1";21;"female";"Some knowledge as amateur";"Some university/higher education but no degree";"right-handed";"polish";"poland"
"5d1cfc4ee950480015366f7b";"BRAC2_horiLL_1st0";0;67;1081,47499998449;"A";"1";0;NA;"A";"black";"red";"parity";6;"0";"1";"0";"0";0;"1";21;"female";"Some knowledge as amateur";"Some university/higher education but no degree";"right-handed";"polish";"poland"
"5d1cfc4ee950480015366f7b";"BRAC2_horiLL_1st0";0;68;585,359999997308;"L";"1";0;NA;"L";"black";"blue";"magnit";9;"0";"1";"1";"1";0;"1";21;"female";"Some knowledge as amateur";"Some university/higher education but no degree";"right-handed";"polish";"poland"
"5d1cfc4ee950480015366f7b";"BRAC2_horiLL_1st0";0;69;1775,90999999666;"L";"1";1;NA;"A";"black";"red";"parity";4;"0";"1";"1";"1";0;"1";21;"female";"Some knowledge as amateur";"Some university/higher education but no degree";"right-handed";"polish";"poland"
"5d1cfc4ee950480015366f7b";"BRAC2_horiLL_1st0";0;70;447,415000002366;"L";"1";0;NA;"L";"black";"red";"parity";3;"0";"0";"1";"0";1;"1";21;"female";"Some knowledge as amateur";"Some university/higher education but no degree";"right-handed";"polish";"poland"
"5d1cfc4ee950480015366f7b";"BRAC2_horiLL_1st0";0;71;962,975000002189;"A";"1";1;NA;"L";"black";"red";"parity";9;"0";"0";"0";"0";0;"1";21;"female";"Some knowledge as amateur";"Some university/higher education but no degree";"right-handed";"polish";"poland"
"5d1cfc4ee950480015366f7b";"BRAC2_horiLL_1st0";0;72;1329,67999999528;"L";"1";0;NA;"L";"black";"blue";"magnit";6;"0";"1";"0";"1";1;"1";21;"female";"Some knowledge as amateur";"Some university/higher education but no degree";"right-handed";"polish";"poland"
"5d1cfc4ee950480015366f7b";"BRAC2_horiLL_1st0";0;73;654,104999994161;"A";"1";0;NA;"A";"black";"red";"parity";8;"0";"1";"1";"1";0;"1";21;"female";"Some knowledge as amateur";"Some university/higher education but no degree";"right-handed";"polish";"poland"
"5d1cfc4ee950480015366f7b";"BRAC2_horiLL_1st0";0;74;1721,03999997489;"L";"1";0;NA;"L";"black";"red";"parity";3;"0";"0";"1";"0";0;"1";21;"female";"Some knowledge as amateur";"Some university/higher education but no degree";"right-handed";"polish";"poland"
"5d1cfc4ee950480015366f7b";"BRAC2_horiLL_1st0";0;75;806,710000004387;"L";"1";0;NA;"L";"black";"blue";"magnit";7;"0";"1";"0";"1";0;"1";21;"female";"Some knowledge as amateur";"Some university/higher education but no degree";"right-handed";"polish";"poland"
"5d1cfc4ee950480015366f7b";"BRAC2_horiLL_1st0";0;76;1587,27499999804;"L";"1";0;NA;"L";"black";"red";"magnit";9;"0";"0";"0";"1";0;"1";21;"female";"Some knowledge as amateur";"Some university/higher education but no degree";"right-handed";"polish";"poland"
"5d1cfc4ee950480015366f7b";"BRAC2_horiLL_1st0";0;77;521,994999988237;"A";"1";0;NA;"A";"black";"blue";"magnit";2;"0";"0";"1";"1";0;"1";21;"female";"Some knowledge as amateur";"Some university/higher education but no degree";"right-handed";"polish";"poland"
"5d1cfc4ee950480015366f7b";"BRAC2_horiLL_1st0";0;78;1057,69999997574;"L";"1";1;NA;"A";"black";"red";"parity";6;"0";"1";"0";"1";0;"1";21;"female";"Some knowledge as amateur";"Some university/higher education but no degree";"right-handed";"polish";"poland"
"5d1cfc4ee950480015366f7b";"BRAC2_horiLL_1st0";0;79;670,530000003055;"L";"1";0;NA;"L";"black";"blue";"magnit";8;"0";"1";"1";"1";1;"1";21;"female";"Some knowledge as amateur";"Some university/higher education but no degree";"right-handed";"polish";"poland"
"5d1cfc4ee950480015366f7b";"BRAC2_horiLL_1st0";0;80;823,269999993499;"L";"1";1;NA;"A";"black";"red";"parity";2;"0";"1";"1";"1";0;"1";21;"female";"Some knowledge as amateur";"Some university/higher education but no degree";"right-handed";"polish";"poland"
"5d1cfc4ee950480015366f7b";"BRAC2_horiLL_1st0";0;81;1474,77500000969;"L";"1";0;NA;"L";"black";"blue";"magnit";9;"0";"1";"1";"1";1;"1";21;"female";"Some knowledge as amateur";"Some university/higher education but no degree";"right-handed";"polish";"poland"
"5d1cfc4ee950480015366f7b";"BRAC2_horiLL_1st0";0;82;1197,34499999322;"L";"1";0;NA;"L";"black";"blue";"parity";7;"0";"1";"0";"0";0;"1";21;"female";"Some knowledge as amateur";"Some university/higher education but no degree";"right-handed";"polish";"poland"
"5d1cfc4ee950480015366f7b";"BRAC2_horiLL_1st0";0;83;904,30500000366;"A";"1";0;NA;"A";"black";"blue";"magnit";3;"0";"1";"1";"0";0;"1";21;"female";"Some knowledge as amateur";"Some university/higher education but no degree";"right-handed";"polish";"poland"
"5d1cfc4ee950480015366f7b";"BRAC2_horiLL_1st0";0;84;493,895000021439;"A";"1";0;NA;"A";"black";"blue";"magnit";1;"0";"0";"0";"0";0;"1";21;"female";"Some knowledge as amateur";"Some university/higher education but no degree";"right-handed";"polish";"poland"
"5d1cfc4ee950480015366f7b";"BRAC2_horiLL_1st0";0;85;486,284999991767;"L";"1";0;NA;"L";"black";"red";"magnit";9;"0";"0";"1";"1";0;"1";21;"female";"Some knowledge as amateur";"Some university/higher education but no degree";"right-handed";"polish";"poland"
"5d1cfc4ee950480015366f7b";"BRAC2_horiLL_1st0";0;86;941,544999979669;"A";"1";0;NA;"A";"black";"red";"magnit";3;"0";"0";"1";"0";0;"1";21;"female";"Some knowledge as amateur";"Some university/higher education but no degree";"right-handed";"polish";"poland"
"5d1cfc4ee950480015366f7b";"BRAC2_horiLL_1st0";0;87;552,954999991925;"L";"1";0;NA;"L";"black";"red";"magnit";8;"0";"0";"1";"0";0;"1";21;"female";"Some knowledge as amateur";"Some university/higher education but no degree";"right-handed";"polish";"poland"
"5d1cfc4ee950480015366f7b";"BRAC2_horiLL_1st0";0;88;738,604999991367;"L";"1";0;NA;"L";"black";"red";"magnit";7;"0";"0";"0";"0";0;"1";21;"female";"Some knowledge as amateur";"Some university/higher education but no degree";"right-handed";"polish";"poland"
"5d1cfc4ee950480015366f7b";"BRAC2_horiLL_1st0";0;89;792,994999996154;"A";"1";1;NA;"L";"black";"blue";"parity";3;"0";"1";"0";"1";0;"1";21;"female";"Some knowledge as amateur";"Some university/higher education but no degree";"right-handed";"polish";"poland"
"5d1cfc4ee950480015366f7b";"BRAC2_horiLL_1st0";0;90;601,764999999432;"L";"1";1;NA;"A";"black";"red";"parity";2;"0";"0";"1";"1";1;"1";21;"female";"Some knowledge as amateur";"Some university/higher education but no degree";"right-handed";"polish";"poland"
"5d1cfc4ee950480015366f7b";"BRAC2_horiLL_1st0";0;91;788,845000002766;"L";"1";0;NA;"L";"black";"blue";"parity";9;"0";"0";"1";"1";1;"1";21;"female";"Some knowledge as amateur";"Some university/higher education but no degree";"right-handed";"polish";"poland"
"5d1cfc4ee950480015366f7b";"BRAC2_horiLL_1st0";0;92;618,975000019418;"L";"1";0;NA;"L";"black";"red";"parity";1;"0";"0";"0";"1";0;"1";21;"female";"Some knowledge as amateur";"Some university/higher education but no degree";"right-handed";"polish";"poland"
"5d1cfc4ee950480015366f7b";"BRAC2_horiLL_1st0";0;93;757,935000001453;"A";"1";0;NA;"A";"black";"blue";"parity";8;"0";"0";"1";"1";0;"1";21;"female";"Some knowledge as amateur";"Some university/higher education but no degree";"right-handed";"polish";"poland"
"5d1cfc4ee950480015366f7b";"BRAC2_horiLL_1st0";0;94;759,094999986701;"A";"1";0;NA;"A";"black";"red";"magnit";2;"0";"1";"0";"1";0;"1";21;"female";"Some knowledge as amateur";"Some university/higher education but no degree";"right-handed";"polish";"poland"
"5d1cfc4ee950480015366f7b";"BRAC2_horiLL_1st0";0;95;805,54500001017;"A";"1";0;NA;"A";"black";"red";"magnit";3;"0";"0";"0";"0";0;"1";21;"female";"Some knowledge as amateur";"Some university/higher education but no degree";"right-handed";"polish";"poland"
"5d1cfc4ee950480015366f7b";"BRAC2_horiLL_1st0";1;0;1151,58499998506;"L";"1";0;NA;"L";"black";"blue";"magnit";7;"300";"99";"99";"99";99;"1";21;"female";"Some knowledge as amateur";"Some university/higher education but no degree";"right-handed";"polish";"poland"
"5d1cfc4ee950480015366f7b";"BRAC2_horiLL_1st0";1;1;499,569999985397;"L";"1";0;NA;"L";"black";"blue";"magnit";8;"300";"0";"0";"0";0;"1";21;"female";"Some knowledge as amateur";"Some university/higher education but no degree";"right-handed";"polish";"poland"
"5d1cfc4ee950480015366f7b";"BRAC2_horiLL_1st0";1;2;631,529999984195;"L";"1";0;NA;"L";"black";"red";"parity";1;"300";"1";"0";"1";0;"1";21;"female";"Some knowledge as amateur";"Some university/higher education but no degree";"right-handed";"polish";"poland"
"5d1cfc4ee950480015366f7b";"BRAC2_horiLL_1st0";1;3;1238,52499999339;"L";"1";0;NA;"L";"black";"blue";"magnit";6;"300";"1";"0";"1";0;"1";21;"female";"Some knowledge as amateur";"Some university/higher education but no degree";"right-handed";"polish";"poland"
"5d1cfc4ee950480015366f7b";"BRAC2_horiLL_1st0";1;4;748,619999998482;"A";"1";0;NA;"A";"black";"red";"magnit";1;"300";"0";"1";"1";0;"1";21;"female";"Some knowledge as amateur";"Some university/higher education but no degree";"right-handed";"polish";"poland"
"5d1cfc4ee950480015366f7b";"BRAC2_horiLL_1st0";1;5;2498,42499999999;NA;NA;1;1;"L";"black";"blue";"magnit";7;"300";"0";"1";"1";0;"1";21;"female";"Some knowledge as amateur";"Some university/higher education but no degree";"right-handed";"polish";"poland"
"5d1cfc4ee950480015366f7b";"BRAC2_horiLL_1st0";1;6;2498,79099999997;NA;NA;1;1;"A";"black";"blue";"parity";2;"300";"1";"1";"0";1;"1";21;"female";"Some knowledge as amateur";"Some university/higher education but no degree";"right-handed";"polish";"poland"
"5d1cfc4ee950480015366f7b";"BRAC2_horiLL_1st0";1;7;1106,81999998633;"A";"1";1;NA;"L";"black";"blue";"parity";7;"300";"0";"1";"0";1;"1";21;"female";"Some knowledge as amateur";"Some university/higher education but no degree";"right-handed";"polish";"poland"
"5d1cfc4ee950480015366f7b";"BRAC2_horiLL_1st0";1;8;2498,58900000004;NA;NA;1;1;"L";"black";"red";"parity";1;"300";"0";"0";"1";1;"1";21;"female";"Some knowledge as amateur";"Some university/higher education but no degree";"right-handed";"polish";"poland"
"5d1cfc4ee950480015366f7b";"BRAC2_horiLL_1st0";1;9;1038,77499999362;"A";"1";0;NA;"A";"black";"red";"parity";6;"300";"0";"1";"0";1;"1";21;"female";"Some knowledge as amateur";"Some university/higher education but no degree";"right-handed";"polish";"poland"
"5d1cfc4ee950480015366f7b";"BRAC2_horiLL_1st0";1;10;1147,6149999944;"L";"1";0;NA;"L";"black";"blue";"parity";7;"300";"0";"1";"1";0;"1";21;"female";"Some knowledge as amateur";"Some university/higher education but no degree";"right-handed";"polish";"poland"
"5d1cfc4ee950480015366f7b";"BRAC2_horiLL_1st0";1;11;888,180000009015;"A";"1";0;NA;"A";"black";"blue";"magnit";3;"300";"1";"1";"0";0;"1";21;"female";"Some knowledge as amateur";"Some university/higher education but no degree";"right-handed";"polish";"poland"
"5d1cfc4ee950480015366f7b";"BRAC2_horiLL_1st0";1;12;407,210000004852;"L";"1";0;NA;"L";"black";"blue";"magnit";6;"300";"0";"1";"0";0;"1";21;"female";"Some knowledge as amateur";"Some university/higher education but no degree";"right-handed";"polish";"poland"
"5d1cfc4ee950480015366f7b";"BRAC2_horiLL_1st0";1;13;661,045000015292;"A";"1";0;NA;"A";"black";"blue";"parity";8;"300";"1";"1";"0";0;"1";21;"female";"Some knowledge as amateur";"Some university/higher education but no degree";"right-handed";"polish";"poland"
"5d1cfc4ee950480015366f7b";"BRAC2_horiLL_1st0";1;14;842,7049999882;"L";"1";0;NA;"L";"black";"red";"magnit";6;"300";"1";"1";"1";0;"1";21;"female";"Some knowledge as amateur";"Some university/higher education but no degree";"right-handed";"polish";"poland"
"5d1cfc4ee950480015366f7b";"BRAC2_horiLL_1st0";1;15;761,824999994133;"A";"1";0;NA;"A";"black";"blue";"parity";8;"300";"1";"1";"1";0;"1";21;"female";"Some knowledge as amateur";"Some university/higher education but no degree";"right-handed";"polish";"poland"
"5d1cfc4ee950480015366f7b";"BRAC2_horiLL_1st0";1;16;1029,7600000049;"L";"1";0;NA;"L";"black";"red";"magnit";7;"300";"1";"1";"1";0;"1";21;"female";"Some knowledge as amateur";"Some university/higher education but no degree";"right-handed";"polish";"poland"
"5d1cfc4ee950480015366f7b";"BRAC2_horiLL_1st0";1;17;522,445000009611;"L";"1";0;NA;"L";"black";"red";"parity";1;"300";"1";"0";"0";0;"1";21;"female";"Some knowledge as amateur";"Some university/higher education but no degree";"right-handed";"polish";"poland"
"5d1cfc4ee950480015366f7b";"BRAC2_horiLL_1st0";1;18;1249,83999997494;"A";"1";0;NA;"A";"black";"red";"magnit";3;"300";"1";"1";"0";0;"1";21;"female";"Some knowledge as amateur";"Some university/higher education but no degree";"right-handed";"polish";"poland"
"5d1cfc4ee950480015366f7b";"BRAC2_horiLL_1st0";1;19;1291,12499998882;"L";"1";0;NA;"L";"black";"red";"parity";9;"300";"1";"1";"0";0;"1";21;"female";"Some knowledge as amateur";"Some university/higher education but no degree";"right-handed";"polish";"poland"
"5d1cfc4ee950480015366f7b";"BRAC2_horiLL_1st0";1;20;1014,69500001986;"A";"1";0;NA;"A";"black";"red";"magnit";2;"300";"1";"1";"0";0;"1";21;"female";"Some knowledge as amateur";"Some university/higher education but no degree";"right-handed";"polish";"poland"
"5d1cfc4ee950480015366f7b";"BRAC2_horiLL_1st0";1;21;1119,40500000492;"L";"1";0;NA;"L";"black";"red";"magnit";9;"300";"0";"1";"0";0;"1";21;"female";"Some knowledge as amateur";"Some university/higher education but no degree";"right-handed";"polish";"poland"
"5d1cfc4ee950480015366f7b";"BRAC2_horiLL_1st0";1;22;712,835000013001;"A";"1";0;NA;"A";"black";"blue";"magnit";4;"300";"0";"1";"1";0;"1";21;"female";"Some knowledge as amateur";"Some university/higher education but no degree";"right-handed";"polish";"poland"
"5d1cfc4ee950480015366f7b";"BRAC2_horiLL_1st0";1;23;474,765000020852;"A";"1";0;NA;"A";"black";"red";"magnit";3;"300";"0";"0";"1";0;"1";21;"female";"Some knowledge as amateur";"Some university/higher education but no degree";"right-handed";"polish";"poland"
"5d1cfc4ee950480015366f7b";"BRAC2_horiLL_1st0";1;24;627,810000005411;"L";"1";1;NA;"A";"black";"blue";"parity";6;"300";"1";"0";"1";0;"1";21;"female";"Some knowledge as amateur";"Some university/higher education but no degree";"right-handed";"polish";"poland"
"5d1cfc4ee950480015366f7b";"BRAC2_horiLL_1st0";1;25;946,110000018962;"L";"1";0;NA;"L";"black";"blue";"magnit";9;"300";"1";"1";"0";1;"1";21;"female";"Some knowledge as amateur";"Some university/higher education but no degree";"right-handed";"polish";"poland"
"5d1cfc4ee950480015366f7b";"BRAC2_horiLL_1st0";1;26;1424,61499999627;"A";"1";0;NA;"A";"black";"blue";"magnit";4;"300";"0";"1";"0";0;"1";21;"female";"Some knowledge as amateur";"Some university/higher education but no degree";"right-handed";"polish";"poland"
"5d1cfc4ee950480015366f7b";"BRAC2_horiLL_1st0";1;27;467,434999998659;"L";"1";0;NA;"L";"black";"red";"magnit";9;"300";"0";"1";"1";0;"1";21;"female";"Some knowledge as amateur";"Some university/higher education but no degree";"right-handed";"polish";"poland"
"5d1cfc4ee950480015366f7b";"BRAC2_horiLL_1st0";1;28;1025,28499998152;"A";"1";0;NA;"A";"black";"red";"parity";6;"300";"1";"1";"0";0;"1";21;"female";"Some knowledge as amateur";"Some university/higher education but no degree";"right-handed";"polish";"poland"
"5d1cfc4ee950480015366f7b";"BRAC2_horiLL_1st0";1;29;659,104999998817;"L";"1";0;NA;"L";"black";"red";"magnit";7;"300";"1";"1";"0";0;"1";21;"female";"Some knowledge as amateur";"Some university/higher education but no degree";"right-handed";"polish";"poland"
"5d1cfc4ee950480015366f7b";"BRAC2_horiLL_1st0";1;30;479,424999997718;"L";"1";0;NA;"L";"black";"blue";"parity";3;"300";"1";"0";"1";0;"1";21;"female";"Some knowledge as amateur";"Some university/higher education but no degree";"right-handed";"polish";"poland"
"5d1cfc4ee950480015366f7b";"BRAC2_horiLL_1st0";1;31;848,460000008345;"L";"1";0;NA;"L";"black";"blue";"magnit";7;"300";"1";"0";"0";0;"1";21;"female";"Some knowledge as amateur";"Some university/higher education but no degree";"right-handed";"polish";"poland"
"5d1cfc4ee950480015366f7b";"BRAC2_horiLL_1st0";1;32;619,324999977835;"A";"1";0;NA;"A";"black";"red";"magnit";3;"300";"0";"1";"1";0;"1";21;"female";"Some knowledge as amateur";"Some university/higher education but no degree";"right-handed";"polish";"poland"
"5d1cfc4ee950480015366f7b";"BRAC2_horiLL_1st0";1;33;313,569999998435;"A";"1";0;NA;"A";"black";"red";"magnit";1;"300";"0";"0";"0";0;"1";21;"female";"Some knowledge as amateur";"Some university/higher education but no degree";"right-handed";"polish";"poland"
"5d1cfc4ee950480015366f7b";"BRAC2_horiLL_1st0";1;34;768,960000015795;"A";"1";0;NA;"A";"black";"red";"magnit";4;"300";"0";"0";"0";0;"1";21;"female";"Some knowledge as amateur";"Some university/higher education but no degree";"right-handed";"polish";"poland"
"5d1cfc4ee950480015366f7b";"BRAC2_horiLL_1st0";1;35;728,889999998501;"L";"1";0;NA;"L";"black";"red";"parity";3;"300";"1";"1";"0";0;"1";21;"female";"Some knowledge as amateur";"Some university/higher education but no degree";"right-handed";"polish";"poland"
"5d1cfc4ee950480015366f7b";"BRAC2_horiLL_1st0";1;36;929,880000010598;"L";"1";0;NA;"L";"black";"blue";"magnit";9;"300";"1";"0";"1";0;"1";21;"female";"Some knowledge as amateur";"Some university/higher education but no degree";"right-handed";"polish";"poland"
"5d1cfc4ee950480015366f7b";"BRAC2_horiLL_1st0";1;37;1189,93500000215;"A";"1";0;NA;"A";"black";"blue";"magnit";2;"300";"0";"1";"0";0;"1";21;"female";"Some knowledge as amateur";"Some university/higher education but no degree";"right-handed";"polish";"poland"
"5d1cfc4ee950480015366f7b";"BRAC2_horiLL_1st0";1;38;857,815000024857;"A";"1";0;NA;"A";"black";"red";"magnit";1;"300";"0";"0";"1";0;"1";21;"female";"Some knowledge as amateur";"Some university/higher education but no degree";"right-handed";"polish";"poland"
"5d1cfc4ee950480015366f7b";"BRAC2_horiLL_1st0";1;39;520,85500000976;"A";"1";0;NA;"A";"black";"red";"magnit";2;"300";"0";"0";"0";0;"1";21;"female";"Some knowledge as amateur";"Some university/higher education but no degree";"right-handed";"polish";"poland"
"5d1cfc4ee950480015366f7b";"BRAC2_horiLL_1st0";1;40;752,240000001621;"L";"1";0;NA;"L";"black";"blue";"parity";3;"300";"1";"1";"1";0;"1";21;"female";"Some knowledge as amateur";"Some university/higher education but no degree";"right-handed";"polish";"poland"
"5d1cfc4ee950480015366f7b";"BRAC2_horiLL_1st0";1;41;608,3299999882;"L";"1";0;NA;"L";"black";"red";"parity";7;"300";"0";"0";"1";0;"1";21;"female";"Some knowledge as amateur";"Some university/higher education but no degree";"right-handed";"polish";"poland"
"5d1cfc4ee950480015366f7b";"BRAC2_horiLL_1st0";1;42;649,420000001555;"L";"1";0;NA;"L";"black";"blue";"parity";3;"300";"0";"0";"1";0;"1";21;"female";"Some knowledge as amateur";"Some university/higher education but no degree";"right-handed";"polish";"poland"
"5d1cfc4ee950480015366f7b";"BRAC2_horiLL_1st0";1;43;425,385000009555;"A";"1";0;NA;"A";"black";"blue";"parity";6;"300";"0";"1";"0";0;"1";21;"female";"Some knowledge as amateur";"Some university/higher education but no degree";"right-handed";"polish";"poland"
"5d1cfc4ee950480015366f7b";"BRAC2_horiLL_1st0";1;44;1055,80500001088;"A";"1";0;NA;"A";"black";"blue";"magnit";3;"300";"1";"0";"0";0;"1";21;"female";"Some knowledge as amateur";"Some university/higher education but no degree";"right-handed";"polish";"poland"
"5d1cfc4ee950480015366f7b";"BRAC2_horiLL_1st0";1;45;1095,17000001506;"L";"1";0;NA;"L";"black";"red";"parity";9;"300";"1";"1";"1";0;"1";21;"female";"Some knowledge as amateur";"Some university/higher education but no degree";"right-handed";"polish";"poland"
"5d1cfc4ee950480015366f7b";"BRAC2_horiLL_1st0";1;46;924,280000006547;"L";"1";0;NA;"L";"black";"blue";"magnit";8;"300";"1";"0";"1";0;"1";21;"female";"Some knowledge as amateur";"Some university/higher education but no degree";"right-handed";"polish";"poland"
"5d1cfc4ee950480015366f7b";"BRAC2_horiLL_1st0";1;47;1229,71000001417;"A";"1";0;NA;"A";"black";"red";"parity";4;"300";"1";"1";"1";0;"1";21;"female";"Some knowledge as amateur";"Some university/higher education but no degree";"right-handed";"polish";"poland"
"5d1cfc4ee950480015366f7b";"BRAC2_horiLL_1st0";1;48;842,100000008941;"A";"1";0;NA;"A";"black";"blue";"magnit";1;"300";"1";"0";"1";0;"1";21;"female";"Some knowledge as amateur";"Some university/higher education but no degree";"right-handed";"polish";"poland"
"5d1cfc4ee950480015366f7b";"BRAC2_horiLL_1st0";1;49;741,399999998976;"L";"1";0;NA;"L";"black";"blue";"parity";9;"300";"1";"1";"0";0;"1";21;"female";"Some knowledge as amateur";"Some university/higher education but no degree";"right-handed";"polish";"poland"
"5d1cfc4ee950480015366f7b";"BRAC2_horiLL_1st0";1;50;802,239999989979;"A";"1";0;NA;"A";"black";"red";"parity";2;"300";"0";"1";"1";0;"1";21;"female";"Some knowledge as amateur";"Some university/higher education but no degree";"right-handed";"polish";"poland"
"5d1cfc4ee950480015366f7b";"BRAC2_horiLL_1st0";1;51;547,754999977769;"L";"1";0;NA;"L";"black";"red";"parity";7;"300";"0";"1";"0";0;"1";21;"female";"Some knowledge as amateur";"Some university/higher education but no degree";"right-handed";"polish";"poland"
"5d1cfc4ee950480015366f7b";"BRAC2_horiLL_1st0";1;52;518,360000016401;"L";"1";0;NA;"L";"black";"blue";"parity";9;"300";"0";"0";"1";0;"1";21;"female";"Some knowledge as amateur";"Some university/higher education but no degree";"right-handed";"polish";"poland"
"5d1cfc4ee950480015366f7b";"BRAC2_horiLL_1st0";1;53;760,29499998549;"A";"1";0;NA;"A";"black";"blue";"parity";4;"300";"0";"1";"0";0;"1";21;"female";"Some knowledge as amateur";"Some university/higher education but no degree";"right-handed";"polish";"poland"
"5d1cfc4ee950480015366f7b";"BRAC2_horiLL_1st0";1;54;575,270000001183;"L";"1";0;NA;"L";"black";"blue";"parity";7;"300";"0";"1";"0";0;"1";21;"female";"Some knowledge as amateur";"Some university/higher education but no degree";"right-handed";"polish";"poland"
"5d1cfc4ee950480015366f7b";"BRAC2_horiLL_1st0";1;55;810,83000000217;"A";"1";0;NA;"A";"black";"red";"parity";2;"300";"0";"1";"1";0;"1";21;"female";"Some knowledge as amateur";"Some university/higher education but no degree";"right-handed";"polish";"poland"
"5d1cfc4ee950480015366f7b";"BRAC2_horiLL_1st0";1;56;586,470000009285;"A";"1";0;NA;"A";"black";"red";"magnit";4;"300";"1";"0";"0";0;"1";21;"female";"Some knowledge as amateur";"Some university/higher education but no degree";"right-handed";"polish";"poland"
"5d1cfc4ee950480015366f7b";"BRAC2_horiLL_1st0";1;57;1060,94499997562;"L";"1";0;NA;"L";"black";"red";"magnit";6;"300";"0";"1";"0";0;"1";21;"female";"Some knowledge as amateur";"Some university/higher education but no degree";"right-handed";"polish";"poland"
"5d1cfc4ee950480015366f7b";"BRAC2_horiLL_1st0";1;58;1240,38499998278;"A";"1";0;NA;"A";"black";"blue";"parity";8;"300";"1";"1";"1";0;"1";21;"female";"Some knowledge as amateur";"Some university/higher education but no degree";"right-handed";"polish";"poland"
"5d1cfc4ee950480015366f7b";"BRAC2_horiLL_1st0";1;59;621,33000002359;"A";"1";0;NA;"A";"black";"blue";"parity";2;"300";"0";"0";"0";0;"1";21;"female";"Some knowledge as amateur";"Some university/higher education but no degree";"right-handed";"polish";"poland"
"5d1cfc4ee950480015366f7b";"BRAC2_horiLL_1st0";1;60;982,969999982743;"L";"1";1;NA;"A";"black";"blue";"magnit";3;"300";"1";"0";"0";0;"1";21;"female";"Some knowledge as amateur";"Some university/higher education but no degree";"right-handed";"polish";"poland"
"5d1cfc4ee950480015366f7b";"BRAC2_horiLL_1st0";1;61;957,029999990482;"L";"1";0;NA;"L";"black";"blue";"magnit";9;"300";"0";"1";"0";1;"1";21;"female";"Some knowledge as amateur";"Some university/higher education but no degree";"right-handed";"polish";"poland"
"5d1cfc4ee950480015366f7b";"BRAC2_horiLL_1st0";1;62;546,75499998848;"A";"1";0;NA;"A";"black";"blue";"magnit";2;"300";"0";"1";"0";0;"1";21;"female";"Some knowledge as amateur";"Some university/higher education but no degree";"right-handed";"polish";"poland"
"5d1cfc4ee950480015366f7b";"BRAC2_horiLL_1st0";1;63;1232,54500000621;"L";"1";0;NA;"L";"black";"red";"parity";9;"300";"1";"1";"1";0;"1";21;"female";"Some knowledge as amateur";"Some university/higher education but no degree";"right-handed";"polish";"poland"
"5d1cfc4ee950480015366f7b";"BRAC2_horiLL_1st0";1;64;1043,80999997375;"A";"1";0;NA;"A";"black";"red";"parity";6;"300";"0";"1";"0";0;"1";21;"female";"Some knowledge as amateur";"Some university/higher education but no degree";"right-handed";"polish";"poland"
"5d1cfc4ee950480015366f7b";"BRAC2_horiLL_1st0";1;65;950,489999988349;"A";"1";0;NA;"A";"black";"red";"magnit";2;"300";"1";"0";"0";0;"1";21;"female";"Some knowledge as amateur";"Some university/higher education but no degree";"right-handed";"polish";"poland"
"5d1cfc4ee950480015366f7b";"BRAC2_horiLL_1st0";1;66;1306,24500001431;"A";"1";0;NA;"A";"black";"blue";"magnit";1;"300";"0";"0";"1";0;"1";21;"female";"Some knowledge as amateur";"Some university/higher education but no degree";"right-handed";"polish";"poland"
"5d1cfc4ee950480015366f7b";"BRAC2_horiLL_1st0";1;67;479,735000000801;"L";"1";0;NA;"L";"black";"red";"parity";3;"300";"1";"1";"1";0;"1";21;"female";"Some knowledge as amateur";"Some university/higher education but no degree";"right-handed";"polish";"poland"
"5d1cfc4ee950480015366f7b";"BRAC2_horiLL_1st0";1;68;1193,21999998647;"A";"1";0;NA;"A";"black";"red";"parity";4;"300";"0";"1";"0";0;"1";21;"female";"Some knowledge as amateur";"Some university/higher education but no degree";"right-handed";"polish";"poland"
"5d1cfc4ee950480015366f7b";"BRAC2_horiLL_1st0";1;69;595,564999995986;"L";"1";0;NA;"L";"black";"red";"magnit";8;"300";"1";"1";"0";0;"1";21;"female";"Some knowledge as amateur";"Some university/higher education but no degree";"right-handed";"polish";"poland"
"5d1cfc4ee950480015366f7b";"BRAC2_horiLL_1st0";1;70;965,204999985872;"A";"1";0;NA;"A";"black";"blue";"parity";4;"300";"1";"1";"1";0;"1";21;"female";"Some knowledge as amateur";"Some university/higher education but no degree";"right-handed";"polish";"poland"
"5d1cfc4ee950480015366f7b";"BRAC2_horiLL_1st0";1;71;371,840000007069;"L";"1";0;NA;"L";"black";"red";"parity";3;"300";"0";"1";"1";0;"1";21;"female";"Some knowledge as amateur";"Some university/higher education but no degree";"right-handed";"polish";"poland"
"5d1cfc4ee950480015366f7b";"BRAC2_horiLL_1st0";1;72;837,690000014845;"L";"1";0;NA;"L";"black";"red";"magnit";6;"300";"1";"0";"0";0;"1";21;"female";"Some knowledge as amateur";"Some university/higher education but no degree";"right-handed";"polish";"poland"
"5d1cfc4ee950480015366f7b";"BRAC2_horiLL_1st0";1;73;1667,51500000828;"A";"1";0;NA;"A";"black";"red";"parity";8;"300";"1";"1";"0";0;"1";21;"female";"Some knowledge as amateur";"Some university/higher education but no degree";"right-handed";"polish";"poland"
"5d1cfc4ee950480015366f7b";"BRAC2_horiLL_1st0";1;74;1230,98500000197;"L";"1";0;NA;"L";"black";"blue";"parity";1;"300";"0";"1";"1";0;"1";21;"female";"Some knowledge as amateur";"Some university/higher education but no degree";"right-handed";"polish";"poland"
"5d1cfc4ee950480015366f7b";"BRAC2_horiLL_1st0";1;75;590,720000007423;"L";"1";0;NA;"L";"black";"red";"parity";7;"300";"0";"0";"1";0;"1";21;"female";"Some knowledge as amateur";"Some university/higher education but no degree";"right-handed";"polish";"poland"
"5d1cfc4ee950480015366f7b";"BRAC2_horiLL_1st0";1;76;557,384999992792;"L";"1";0;NA;"L";"black";"blue";"parity";1;"300";"0";"0";"1";0;"1";21;"female";"Some knowledge as amateur";"Some university/higher education but no degree";"right-handed";"polish";"poland"
"5d1cfc4ee950480015366f7b";"BRAC2_horiLL_1st0";1;77;1626,96500000311;"L";"1";0;NA;"L";"black";"red";"magnit";8;"300";"1";"0";"1";0;"1";21;"female";"Some knowledge as amateur";"Some university/higher education but no degree";"right-handed";"polish";"poland"
"5d1cfc4ee950480015366f7b";"BRAC2_horiLL_1st0";1;78;975,859999976819;"A";"1";1;NA;"L";"black";"blue";"parity";1;"300";"1";"0";"1";0;"1";21;"female";"Some knowledge as amateur";"Some university/higher education but no degree";"right-handed";"polish";"poland"
"5d1cfc4ee950480015366f7b";"BRAC2_horiLL_1st0";1;79;728,570000006584;"A";"1";0;NA;"A";"black";"red";"parity";8;"300";"0";"1";"1";1;"1";21;"female";"Some knowledge as amateur";"Some university/higher education but no degree";"right-handed";"polish";"poland"
"5d1cfc4ee950480015366f7b";"BRAC2_horiLL_1st0";1;80;921,905000024708;"L";"1";0;NA;"L";"black";"blue";"magnit";6;"300";"1";"1";"1";0;"1";21;"female";"Some knowledge as amateur";"Some university/higher education but no degree";"right-handed";"polish";"poland"
"5d1cfc4ee950480015366f7b";"BRAC2_horiLL_1st0";1;81;622,050000005402;"A";"1";0;NA;"A";"black";"blue";"magnit";1;"300";"0";"1";"0";0;"1";21;"female";"Some knowledge as amateur";"Some university/higher education but no degree";"right-handed";"polish";"poland"
"5d1cfc4ee950480015366f7b";"BRAC2_horiLL_1st0";1;82;933,465000009164;"L";"1";0;NA;"L";"black";"blue";"parity";9;"300";"1";"1";"0";0;"1";21;"female";"Some knowledge as amateur";"Some university/higher education but no degree";"right-handed";"polish";"poland"
"5d1cfc4ee950480015366f7b";"BRAC2_horiLL_1st0";1;83;889,685000001919;"A";"1";0;NA;"A";"black";"red";"parity";8;"300";"0";"1";"1";0;"1";21;"female";"Some knowledge as amateur";"Some university/higher education but no degree";"right-handed";"polish";"poland"
"5d1cfc4ee950480015366f7b";"BRAC2_horiLL_1st0";1;84;1160,31999999541;"A";"1";0;NA;"A";"black";"blue";"parity";4;"300";"0";"0";"1";0;"1";21;"female";"Some knowledge as amateur";"Some university/higher education but no degree";"right-handed";"polish";"poland"
"5d1cfc4ee950480015366f7b";"BRAC2_horiLL_1st0";1;85;517,960000026505;"A";"1";0;NA;"A";"black";"blue";"magnit";2;"300";"1";"0";"0";0;"1";21;"female";"Some knowledge as amateur";"Some university/higher education but no degree";"right-handed";"polish";"poland"
"5d1cfc4ee950480015366f7b";"BRAC2_horiLL_1st0";1;86;970,91500001261;"A";"1";0;NA;"A";"black";"blue";"magnit";4;"300";"0";"0";"0";0;"1";21;"female";"Some knowledge as amateur";"Some university/higher education but no degree";"right-handed";"polish";"poland"
"5d1cfc4ee950480015366f7b";"BRAC2_horiLL_1st0";1;87;1198,81999999052;"A";"1";0;NA;"A";"black";"blue";"parity";6;"300";"1";"0";"0";0;"1";21;"female";"Some knowledge as amateur";"Some university/higher education but no degree";"right-handed";"polish";"poland"
"5d1cfc4ee950480015366f7b";"BRAC2_horiLL_1st0";1;88;468,655000004219;"L";"1";0;NA;"L";"black";"red";"magnit";9;"300";"1";"1";"1";0;"1";21;"female";"Some knowledge as amateur";"Some university/higher education but no degree";"right-handed";"polish";"poland"
"5d1cfc4ee950480015366f7b";"BRAC2_horiLL_1st0";1;89;1146,64500000072;"A";"1";0;NA;"A";"black";"blue";"parity";2;"300";"1";"1";"1";0;"1";21;"female";"Some knowledge as amateur";"Some university/higher education but no degree";"right-handed";"polish";"poland"
"5d1cfc4ee950480015366f7b";"BRAC2_horiLL_1st0";1;90;1146,03499998339;"A";"1";0;NA;"A";"black";"red";"parity";4;"300";"0";"0";"1";0;"1";21;"female";"Some knowledge as amateur";"Some university/higher education but no degree";"right-handed";"polish";"poland"
"5d1cfc4ee950480015366f7b";"BRAC2_horiLL_1st0";1;91;1106,07999999775;"L";"1";0;NA;"L";"black";"red";"magnit";7;"300";"1";"1";"0";0;"1";21;"female";"Some knowledge as amateur";"Some university/higher education but no degree";"right-handed";"polish";"poland"
"5d1cfc4ee950480015366f7b";"BRAC2_horiLL_1st0";1;92;1040,05500001949;"A";"1";1;NA;"L";"black";"blue";"magnit";8;"300";"0";"0";"1";0;"1";21;"female";"Some knowledge as amateur";"Some university/higher education but no degree";"right-handed";"polish";"poland"
"5d1cfc4ee950480015366f7b";"BRAC2_horiLL_1st0";1;93;738,444999995409;"A";"1";0;NA;"A";"black";"red";"magnit";4;"300";"0";"1";"1";1;"1";21;"female";"Some knowledge as amateur";"Some university/higher education but no degree";"right-handed";"polish";"poland"
"5d1cfc4ee950480015366f7b";"BRAC2_horiLL_1st0";1;94;974,130000016885;"L";"1";0;NA;"L";"black";"red";"magnit";8;"300";"0";"1";"0";0;"1";21;"female";"Some knowledge as amateur";"Some university/higher education but no degree";"right-handed";"polish";"poland"
"5d1cfc4ee950480015366f7b";"BRAC2_horiLL_1st0";1;95;577,064999990398;"A";"1";0;NA;"A";"black";"red";"parity";2;"300";"1";"1";"0";0;"1";21;"female";"Some knowledge as amateur";"Some university/higher education but no degree";"right-handed";"polish";"poland"
"5d1cfc4ee950480015366f7b";"BRAC2_horiLL_1st0";2;0;1586,69500000542;"L";"1";0;NA;"L";"black";"blue";"parity";7;"0";"99";"99";"99";99;"1";21;"female";"Some knowledge as amateur";"Some university/higher education but no degree";"right-handed";"polish";"poland"
"5d1cfc4ee950480015366f7b";"BRAC2_horiLL_1st0";2;1;1027,14500000002;"L";"1";0;NA;"L";"black";"blue";"magnit";9;"0";"1";"0";"0";0;"1";21;"female";"Some knowledge as amateur";"Some university/higher education but no degree";"right-handed";"polish";"poland"
"5d1cfc4ee950480015366f7b";"BRAC2_horiLL_1st0";2;2;410,765000007814;"A";"1";0;NA;"A";"black";"blue";"magnit";2;"0";"0";"1";"0";0;"1";21;"female";"Some knowledge as amateur";"Some university/higher education but no degree";"right-handed";"polish";"poland"
"5d1cfc4ee950480015366f7b";"BRAC2_horiLL_1st0";2;3;1048,84499998298;"L";"1";0;NA;"L";"black";"red";"magnit";6;"0";"0";"1";"1";0;"1";21;"female";"Some knowledge as amateur";"Some university/higher education but no degree";"right-handed";"polish";"poland"
"5d1cfc4ee950480015366f7b";"BRAC2_horiLL_1st0";2;4;629,019999993034;"L";"1";0;NA;"L";"black";"blue";"parity";9;"0";"1";"0";"1";0;"1";21;"female";"Some knowledge as amateur";"Some university/higher education but no degree";"right-handed";"polish";"poland"
"5d1cfc4ee950480015366f7b";"BRAC2_horiLL_1st0";2;5;507,494999998016;"A";"1";0;NA;"A";"black";"red";"parity";2;"0";"0";"1";"1";0;"1";21;"female";"Some knowledge as amateur";"Some university/higher education but no degree";"right-handed";"polish";"poland"
"5d1cfc4ee950480015366f7b";"BRAC2_horiLL_1st0";2;6;503,124999988358;"A";"1";0;NA;"A";"black";"blue";"parity";8;"0";"0";"0";"1";0;"1";21;"female";"Some knowledge as amateur";"Some university/higher education but no degree";"right-handed";"polish";"poland"
"5d1cfc4ee950480015366f7b";"BRAC2_horiLL_1st0";2;7;660,065000003669;"A";"1";0;NA;"A";"black";"blue";"parity";6;"0";"0";"0";"0";0;"1";21;"female";"Some knowledge as amateur";"Some university/higher education but no degree";"right-handed";"polish";"poland"
"5d1cfc4ee950480015366f7b";"BRAC2_horiLL_1st0";2;8;538,274999998976;"A";"1";0;NA;"A";"black";"red";"parity";8;"0";"0";"0";"1";0;"1";21;"female";"Some knowledge as amateur";"Some university/higher education but no degree";"right-handed";"polish";"poland"
"5d1cfc4ee950480015366f7b";"BRAC2_horiLL_1st0";2;9;1068,02000000607;"L";"1";0;NA;"L";"black";"blue";"magnit";7;"0";"1";"1";"1";0;"1";21;"female";"Some knowledge as amateur";"Some university/higher education but no degree";"right-handed";"polish";"poland"
"5d1cfc4ee950480015366f7b";"BRAC2_horiLL_1st0";2;10;635,16500001424;"L";"1";1;NA;"A";"black";"red";"magnit";1;"0";"0";"1";"1";0;"1";21;"female";"Some knowledge as amateur";"Some university/higher education but no degree";"right-handed";"polish";"poland"
"5d1cfc4ee950480015366f7b";"BRAC2_horiLL_1st0";2;11;1054,26000000443;"A";"1";0;NA;"A";"black";"red";"magnit";4;"0";"0";"0";"0";1;"1";21;"female";"Some knowledge as amateur";"Some university/higher education but no degree";"right-handed";"polish";"poland"
"5d1cfc4ee950480015366f7b";"BRAC2_horiLL_1st0";2;12;660,409999982221;"L";"1";0;NA;"L";"black";"blue";"magnit";6;"0";"0";"1";"1";0;"1";21;"female";"Some knowledge as amateur";"Some university/higher education but no degree";"right-handed";"polish";"poland"
"5d1cfc4ee950480015366f7b";"BRAC2_horiLL_1st0";2;13;971,454999991693;"L";"1";0;NA;"L";"black";"red";"magnit";7;"0";"0";"0";"1";0;"1";21;"female";"Some knowledge as amateur";"Some university/higher education but no degree";"right-handed";"polish";"poland"
"5d1cfc4ee950480015366f7b";"BRAC2_horiLL_1st0";2;14;839,98999997857;"A";"1";0;NA;"A";"black";"red";"magnit";3;"0";"0";"1";"0";0;"1";21;"female";"Some knowledge as amateur";"Some university/higher education but no degree";"right-handed";"polish";"poland"
"5d1cfc4ee950480015366f7b";"BRAC2_horiLL_1st0";2;15;1488,89999999665;"A";"1";0;NA;"A";"black";"red";"parity";6;"0";"1";"0";"0";0;"1";21;"female";"Some knowledge as amateur";"Some university/higher education but no degree";"right-handed";"polish";"poland"
"5d1cfc4ee950480015366f7b";"BRAC2_horiLL_1st0";2;16;495,420000021113;"A";"1";0;NA;"A";"black";"red";"magnit";1;"0";"1";"0";"0";0;"1";21;"female";"Some knowledge as amateur";"Some university/higher education but no degree";"right-handed";"polish";"poland"
"5d1cfc4ee950480015366f7b";"BRAC2_horiLL_1st0";2;17;685,28000000515;"A";"1";0;NA;"A";"black";"blue";"parity";8;"0";"1";"0";"1";0;"1";21;"female";"Some knowledge as amateur";"Some university/higher education but no degree";"right-handed";"polish";"poland"
"5d1cfc4ee950480015366f7b";"BRAC2_horiLL_1st0";2;18;506,870000011986;"A";"1";0;NA;"A";"black";"blue";"magnit";1;"0";"1";"0";"0";0;"1";21;"female";"Some knowledge as amateur";"Some university/higher education but no degree";"right-handed";"polish";"poland"
"5d1cfc4ee950480015366f7b";"BRAC2_horiLL_1st0";2;19;618,259999988368;"A";"1";0;NA;"A";"black";"blue";"parity";4;"0";"1";"0";"0";0;"1";21;"female";"Some knowledge as amateur";"Some university/higher education but no degree";"right-handed";"polish";"poland"
"5d1cfc4ee950480015366f7b";"BRAC2_horiLL_1st0";2;20;1377,73999999627;"A";"1";0;NA;"A";"black";"blue";"magnit";2;"0";"1";"0";"0";0;"1";21;"female";"Some knowledge as amateur";"Some university/higher education but no degree";"right-handed";"polish";"poland"
"5d1cfc4ee950480015366f7b";"BRAC2_horiLL_1st0";2;21;950,709999975516;"L";"1";0;NA;"L";"black";"red";"parity";9;"0";"1";"1";"1";0;"1";21;"female";"Some knowledge as amateur";"Some university/higher education but no degree";"right-handed";"polish";"poland"
"5d1cfc4ee950480015366f7b";"BRAC2_horiLL_1st0";2;22;330,679999984568;"A";"1";0;NA;"A";"black";"blue";"parity";2;"0";"0";"1";"1";0;"1";21;"female";"Some knowledge as amateur";"Some university/higher education but no degree";"right-handed";"polish";"poland"
"5d1cfc4ee950480015366f7b";"BRAC2_horiLL_1st0";2;23;552,330000005895;"A";"1";0;NA;"A";"black";"blue";"magnit";1;"0";"1";"0";"0";0;"1";21;"female";"Some knowledge as amateur";"Some university/higher education but no degree";"right-handed";"polish";"poland"
"5d1cfc4ee950480015366f7b";"BRAC2_horiLL_1st0";2;24;553,519999986747;"A";"1";0;NA;"A";"black";"blue";"magnit";4;"0";"0";"0";"0";0;"1";21;"female";"Some knowledge as amateur";"Some university/higher education but no degree";"right-handed";"polish";"poland"
"5d1cfc4ee950480015366f7b";"BRAC2_horiLL_1st0";2;25;1243,66500001634;"A";"1";0;NA;"A";"black";"blue";"parity";6;"0";"1";"0";"0";0;"1";21;"female";"Some knowledge as amateur";"Some university/higher education but no degree";"right-handed";"polish";"poland"
"5d1cfc4ee950480015366f7b";"BRAC2_horiLL_1st0";2;26;608,840000000782;"L";"1";0;NA;"L";"black";"blue";"parity";9;"0";"0";"1";"0";0;"1";21;"female";"Some knowledge as amateur";"Some university/higher education but no degree";"right-handed";"polish";"poland"
"5d1cfc4ee950480015366f7b";"BRAC2_horiLL_1st0";2;27;699,904999986757;"A";"1";1;NA;"L";"black";"red";"parity";3;"0";"0";"0";"1";0;"1";21;"female";"Some knowledge as amateur";"Some university/higher education but no degree";"right-handed";"polish";"poland"
"5d1cfc4ee950480015366f7b";"BRAC2_horiLL_1st0";2;28;474,340000015218;"L";"1";0;NA;"L";"black";"red";"parity";9;"0";"0";"0";"0";1;"1";21;"female";"Some knowledge as amateur";"Some university/higher education but no degree";"right-handed";"polish";"poland"
"5d1cfc4ee950480015366f7b";"BRAC2_horiLL_1st0";2;29;337,705000012647;"A";"1";1;NA;"L";"black";"blue";"parity";3;"0";"0";"0";"1";0;"1";21;"female";"Some knowledge as amateur";"Some university/higher education but no degree";"right-handed";"polish";"poland"
"5d1cfc4ee950480015366f7b";"BRAC2_horiLL_1st0";2;30;1080,38499997929;"L";"1";0;NA;"L";"black";"blue";"magnit";9;"0";"1";"0";"0";1;"1";21;"female";"Some knowledge as amateur";"Some university/higher education but no degree";"right-handed";"polish";"poland"
"5d1cfc4ee950480015366f7b";"BRAC2_horiLL_1st0";2;31;588,509999972302;"A";"1";1;NA;"L";"black";"red";"parity";1;"0";"1";"0";"1";0;"1";21;"female";"Some knowledge as amateur";"Some university/higher education but no degree";"right-handed";"polish";"poland"
"5d1cfc4ee950480015366f7b";"BRAC2_horiLL_1st0";2;32;748,170000006212;"L";"1";0;NA;"L";"black";"blue";"magnit";7;"0";"1";"0";"1";1;"1";21;"female";"Some knowledge as amateur";"Some university/higher education but no degree";"right-handed";"polish";"poland"
"5d1cfc4ee950480015366f7b";"BRAC2_horiLL_1st0";2;33;1004,83499999973;"L";"1";0;NA;"L";"black";"blue";"parity";1;"0";"1";"0";"0";0;"1";21;"female";"Some knowledge as amateur";"Some university/higher education but no degree";"right-handed";"polish";"poland"
"5d1cfc4ee950480015366f7b";"BRAC2_horiLL_1st0";2;34;778,98499998264;"L";"1";0;NA;"L";"black";"red";"magnit";7;"0";"1";"0";"1";0;"1";21;"female";"Some knowledge as amateur";"Some university/higher education but no degree";"right-handed";"polish";"poland"
"5d1cfc4ee950480015366f7b";"BRAC2_horiLL_1st0";2;35;1592,55499998108;"A";"1";0;NA;"A";"black";"red";"parity";6;"0";"1";"1";"0";0;"1";21;"female";"Some knowledge as amateur";"Some university/higher education but no degree";"right-handed";"polish";"poland"
"5d1cfc4ee950480015366f7b";"BRAC2_horiLL_1st0";2;36;528,859999991255;"A";"1";0;NA;"A";"black";"red";"magnit";2;"0";"1";"0";"0";0;"1";21;"female";"Some knowledge as amateur";"Some university/higher education but no degree";"right-handed";"polish";"poland"
"5d1cfc4ee950480015366f7b";"BRAC2_horiLL_1st0";2;37;2377,13000000804;"A";"1";1;NA;"L";"black";"blue";"magnit";6;"0";"0";"1";"1";0;"1";21;"female";"Some knowledge as amateur";"Some university/higher education but no degree";"right-handed";"polish";"poland"
"5d1cfc4ee950480015366f7b";"BRAC2_horiLL_1st0";2;38;608,5299999977;"L";"1";0;NA;"L";"black";"red";"magnit";8;"0";"0";"0";"1";1;"1";21;"female";"Some knowledge as amateur";"Some university/higher education but no degree";"right-handed";"polish";"poland"
"5d1cfc4ee950480015366f7b";"BRAC2_horiLL_1st0";2;39;932,815000007395;"A";"1";0;NA;"A";"black";"blue";"parity";2;"0";"1";"1";"1";0;"1";21;"female";"Some knowledge as amateur";"Some university/higher education but no degree";"right-handed";"polish";"poland"
"5d1cfc4ee950480015366f7b";"BRAC2_horiLL_1st0";2;40;480,335000000196;"L";"1";0;NA;"L";"black";"red";"parity";7;"0";"0";"1";"1";0;"1";21;"female";"Some knowledge as amateur";"Some university/higher education but no degree";"right-handed";"polish";"poland"
"5d1cfc4ee950480015366f7b";"BRAC2_horiLL_1st0";2;41;869,230000011157;"L";"1";0;NA;"L";"black";"red";"magnit";8;"0";"1";"0";"0";0;"1";21;"female";"Some knowledge as amateur";"Some university/higher education but no degree";"right-handed";"polish";"poland"
"5d1cfc4ee950480015366f7b";"BRAC2_horiLL_1st0";2;42;877,51500000013;"L";"1";0;NA;"L";"black";"red";"parity";7;"0";"1";"0";"0";0;"1";21;"female";"Some knowledge as amateur";"Some university/higher education but no degree";"right-handed";"polish";"poland"
"5d1cfc4ee950480015366f7b";"BRAC2_horiLL_1st0";2;43;879,404999985127;"A";"1";0;NA;"A";"black";"red";"parity";4;"0";"0";"1";"0";0;"1";21;"female";"Some knowledge as amateur";"Some university/higher education but no degree";"right-handed";"polish";"poland"
"5d1cfc4ee950480015366f7b";"BRAC2_horiLL_1st0";2;44;556,160000007367;"L";"1";0;NA;"L";"black";"blue";"parity";9;"0";"0";"1";"1";0;"1";21;"female";"Some knowledge as amateur";"Some university/higher education but no degree";"right-handed";"polish";"poland"
"5d1cfc4ee950480015366f7b";"BRAC2_horiLL_1st0";2;45;1515,26499999454;"L";"1";0;NA;"L";"black";"blue";"parity";3;"0";"0";"0";"0";0;"1";21;"female";"Some knowledge as amateur";"Some university/higher education but no degree";"right-handed";"polish";"poland"
"5d1cfc4ee950480015366f7b";"BRAC2_horiLL_1st0";2;46;1020,62999998452;"L";"1";0;NA;"L";"black";"red";"parity";1;"0";"0";"0";"1";0;"1";21;"female";"Some knowledge as amateur";"Some university/higher education but no degree";"right-handed";"polish";"poland"
"5d1cfc4ee950480015366f7b";"BRAC2_horiLL_1st0";2;47;877,004999987548;"L";"1";1;NA;"A";"black";"red";"magnit";4;"0";"1";"1";"0";0;"1";21;"female";"Some knowledge as amateur";"Some university/higher education but no degree";"right-handed";"polish";"poland"
"5d1cfc4ee950480015366f7b";"BRAC2_horiLL_1st0";2;48;543,135000014445;"A";"1";0;NA;"A";"black";"red";"magnit";2;"0";"0";"0";"0";1;"1";21;"female";"Some knowledge as amateur";"Some university/higher education but no degree";"right-handed";"polish";"poland"
"5d1cfc4ee950480015366f7b";"BRAC2_horiLL_1st0";2;49;458,675000001676;"L";"1";0;NA;"L";"black";"red";"magnit";9;"0";"0";"1";"0";0;"1";21;"female";"Some knowledge as amateur";"Some university/higher education but no degree";"right-handed";"polish";"poland"
"5d1cfc4ee950480015366f7b";"BRAC2_horiLL_1st0";2;50;1248,17999999505;"A";"1";0;NA;"A";"black";"red";"parity";8;"0";"1";"1";"0";0;"1";21;"female";"Some knowledge as amateur";"Some university/higher education but no degree";"right-handed";"polish";"poland"
"5d1cfc4ee950480015366f7b";"BRAC2_horiLL_1st0";2;51;705,454999988433;"L";"1";0;NA;"L";"black";"red";"magnit";9;"0";"1";"1";"0";0;"1";21;"female";"Some knowledge as amateur";"Some university/higher education but no degree";"right-handed";"polish";"poland"
"5d1cfc4ee950480015366f7b";"BRAC2_horiLL_1st0";2;52;954,339999996591;"A";"1";0;NA;"A";"black";"blue";"parity";4;"0";"1";"1";"1";0;"1";21;"female";"Some knowledge as amateur";"Some university/higher education but no degree";"right-handed";"polish";"poland"
"5d1cfc4ee950480015366f7b";"BRAC2_horiLL_1st0";2;53;379,275000013877;"L";"1";0;NA;"L";"black";"red";"parity";3;"0";"0";"1";"1";0;"1";21;"female";"Some knowledge as amateur";"Some university/higher education but no degree";"right-handed";"polish";"poland"
"5d1cfc4ee950480015366f7b";"BRAC2_horiLL_1st0";2;54;982,904999982566;"L";"1";0;NA;"L";"black";"blue";"magnit";9;"0";"1";"0";"1";0;"1";21;"female";"Some knowledge as amateur";"Some university/higher education but no degree";"right-handed";"polish";"poland"
"5d1cfc4ee950480015366f7b";"BRAC2_horiLL_1st0";2;55;452,409999998054;"L";"1";0;NA;"L";"black";"blue";"magnit";8;"0";"0";"0";"0";0;"1";21;"female";"Some knowledge as amateur";"Some university/higher education but no degree";"right-handed";"polish";"poland"
"5d1cfc4ee950480015366f7b";"BRAC2_horiLL_1st0";2;56;1425,94499999541;"L";"1";0;NA;"L";"black";"red";"parity";9;"0";"1";"0";"1";0;"1";21;"female";"Some knowledge as amateur";"Some university/higher education but no degree";"right-handed";"polish";"poland"
"5d1cfc4ee950480015366f7b";"BRAC2_horiLL_1st0";2;57;548,214999987977;"L";"1";0;NA;"L";"black";"red";"parity";3;"0";"0";"0";"0";0;"1";21;"female";"Some knowledge as amateur";"Some university/higher education but no degree";"right-handed";"polish";"poland"
"5d1cfc4ee950480015366f7b";"BRAC2_horiLL_1st0";2;58;850,105000019539;"L";"1";0;NA;"L";"black";"blue";"magnit";8;"0";"1";"0";"1";0;"1";21;"female";"Some knowledge as amateur";"Some university/higher education but no degree";"right-handed";"polish";"poland"
"5d1cfc4ee950480015366f7b";"BRAC2_horiLL_1st0";2;59;790,09500000393;"L";"1";0;NA;"L";"black";"red";"parity";1;"0";"1";"0";"1";0;"1";21;"female";"Some knowledge as amateur";"Some university/higher education but no degree";"right-handed";"polish";"poland"
"5d1cfc4ee950480015366f7b";"BRAC2_horiLL_1st0";2;60;410,734999983106;"A";"1";0;NA;"A";"black";"blue";"magnit";2;"0";"1";"1";"1";0;"1";21;"female";"Some knowledge as amateur";"Some university/higher education but no degree";"right-handed";"polish";"poland"
"5d1cfc4ee950480015366f7b";"BRAC2_horiLL_1st0";2;61;1215,88000000338;"A";"1";0;NA;"A";"black";"red";"magnit";1;"0";"0";"0";"1";0;"1";21;"female";"Some knowledge as amateur";"Some university/higher education but no degree";"right-handed";"polish";"poland"
"5d1cfc4ee950480015366f7b";"BRAC2_horiLL_1st0";2;62;620,199999975739;"A";"1";0;NA;"A";"black";"red";"parity";2;"0";"1";"0";"0";0;"1";21;"female";"Some knowledge as amateur";"Some university/higher education but no degree";"right-handed";"polish";"poland"
"5d1cfc4ee950480015366f7b";"BRAC2_horiLL_1st0";2;63;973,765000002459;"L";"1";0;NA;"L";"black";"blue";"magnit";7;"0";"1";"1";"1";0;"1";21;"female";"Some knowledge as amateur";"Some university/higher education but no degree";"right-handed";"polish";"poland"
"5d1cfc4ee950480015366f7b";"BRAC2_horiLL_1st0";2;64;536,220000009052;"L";"1";0;NA;"L";"black";"red";"magnit";8;"0";"0";"0";"1";0;"1";21;"female";"Some knowledge as amateur";"Some university/higher education but no degree";"right-handed";"polish";"poland"
"5d1cfc4ee950480015366f7b";"BRAC2_horiLL_1st0";2;65;504,280000022845;"A";"1";0;NA;"A";"black";"red";"magnit";3;"0";"0";"1";"0";0;"1";21;"female";"Some knowledge as amateur";"Some university/higher education but no degree";"right-handed";"polish";"poland"
"5d1cfc4ee950480015366f7b";"BRAC2_horiLL_1st0";2;66;567,999999999302;"L";"1";0;NA;"L";"black";"red";"magnit";6;"0";"0";"1";"0";0;"1";21;"female";"Some knowledge as amateur";"Some university/higher education but no degree";"right-handed";"polish";"poland"
"5d1cfc4ee950480015366f7b";"BRAC2_horiLL_1st0";2;67;549,064999999246;"A";"1";1;NA;"L";"black";"blue";"parity";7;"0";"1";"0";"1";0;"1";21;"female";"Some knowledge as amateur";"Some university/higher education but no degree";"right-handed";"polish";"poland"
"5d1cfc4ee950480015366f7b";"BRAC2_horiLL_1st0";2;68;424,915000010515;"A";"1";0;NA;"A";"black";"blue";"parity";4;"0";"0";"1";"0";1;"1";21;"female";"Some knowledge as amateur";"Some university/higher education but no degree";"right-handed";"polish";"poland"
"5d1cfc4ee950480015366f7b";"BRAC2_horiLL_1st0";2;69;854,975000023842;"A";"1";0;NA;"A";"black";"blue";"magnit";1;"0";"1";"0";"0";0;"1";21;"female";"Some knowledge as amateur";"Some university/higher education but no degree";"right-handed";"polish";"poland"
"5d1cfc4ee950480015366f7b";"BRAC2_horiLL_1st0";2;70;851,564999989932;"A";"1";0;NA;"A";"black";"blue";"magnit";4;"0";"0";"0";"0";0;"1";21;"female";"Some knowledge as amateur";"Some university/higher education but no degree";"right-handed";"polish";"poland"
"5d1cfc4ee950480015366f7b";"BRAC2_horiLL_1st0";2;71;768,054999993183;"A";"1";0;NA;"A";"black";"blue";"magnit";3;"0";"0";"0";"0";0;"1";21;"female";"Some knowledge as amateur";"Some university/higher education but no degree";"right-handed";"polish";"poland"
"5d1cfc4ee950480015366f7b";"BRAC2_horiLL_1st0";2;72;647,610000014538;"A";"1";0;NA;"A";"black";"red";"parity";4;"0";"1";"0";"1";0;"1";21;"female";"Some knowledge as amateur";"Some university/higher education but no degree";"right-handed";"polish";"poland"
"5d1cfc4ee950480015366f7b";"BRAC2_horiLL_1st0";2;73;513,384999998379;"L";"1";0;NA;"L";"black";"red";"magnit";6;"0";"1";"1";"0";0;"1";21;"female";"Some knowledge as amateur";"Some university/higher education but no degree";"right-handed";"polish";"poland"
"5d1cfc4ee950480015366f7b";"BRAC2_horiLL_1st0";2;74;363,565000006929;"L";"1";0;NA;"L";"black";"blue";"parity";1;"0";"1";"0";"1";0;"1";21;"female";"Some knowledge as amateur";"Some university/higher education but no degree";"right-handed";"polish";"poland"
"5d1cfc4ee950480015366f7b";"BRAC2_horiLL_1st0";2;75;857,000000018161;"A";"1";1;NA;"L";"black";"red";"magnit";7;"0";"1";"0";"1";0;"1";21;"female";"Some knowledge as amateur";"Some university/higher education but no degree";"right-handed";"polish";"poland"
"5d1cfc4ee950480015366f7b";"BRAC2_horiLL_1st0";2;76;587,059999990743;"A";"1";0;NA;"A";"black";"blue";"magnit";4;"0";"0";"1";"1";1;"1";21;"female";"Some knowledge as amateur";"Some university/higher education but no degree";"right-handed";"polish";"poland"
"5d1cfc4ee950480015366f7b";"BRAC2_horiLL_1st0";2;77;554,669999983162;"A";"1";0;NA;"A";"black";"blue";"magnit";3;"0";"0";"0";"0";0;"1";21;"female";"Some knowledge as amateur";"Some university/higher education but no degree";"right-handed";"polish";"poland"
"5d1cfc4ee950480015366f7b";"BRAC2_horiLL_1st0";2;78;519,985000020824;"A";"1";0;NA;"A";"black";"blue";"parity";2;"0";"1";"0";"0";0;"1";21;"female";"Some knowledge as amateur";"Some university/higher education but no degree";"right-handed";"polish";"poland"
"5d1cfc4ee950480015366f7b";"BRAC2_horiLL_1st0";2;79;967,230000009295;"A";"1";1;NA;"L";"black";"blue";"magnit";8;"0";"1";"1";"0";0;"1";21;"female";"Some knowledge as amateur";"Some university/higher education but no degree";"right-handed";"polish";"poland"
"5d1cfc4ee950480015366f7b";"BRAC2_horiLL_1st0";2;80;548,179999983404;"A";"1";0;NA;"A";"black";"red";"magnit";2;"0";"0";"1";"1";1;"1";21;"female";"Some knowledge as amateur";"Some university/higher education but no degree";"right-handed";"polish";"poland"
"5d1cfc4ee950480015366f7b";"BRAC2_horiLL_1st0";2;81;1199,84499999555;"L";"1";0;NA;"L";"black";"blue";"parity";3;"0";"1";"1";"1";0;"1";21;"female";"Some knowledge as amateur";"Some university/higher education but no degree";"right-handed";"polish";"poland"
"5d1cfc4ee950480015366f7b";"BRAC2_horiLL_1st0";2;82;435,964999982389;"L";"1";0;NA;"L";"black";"blue";"parity";7;"0";"0";"0";"0";0;"1";21;"female";"Some knowledge as amateur";"Some university/higher education but no degree";"right-handed";"polish";"poland"
"5d1cfc4ee950480015366f7b";"BRAC2_horiLL_1st0";2;83;838,095000013709;"A";"1";0;NA;"A";"black";"red";"parity";4;"0";"0";"1";"1";0;"1";21;"female";"Some knowledge as amateur";"Some university/higher education but no degree";"right-handed";"polish";"poland"
"5d1cfc4ee950480015366f7b";"BRAC2_horiLL_1st0";2;84;781,949999975041;"L";"1";0;NA;"L";"black";"red";"magnit";9;"0";"1";"1";"0";0;"1";21;"female";"Some knowledge as amateur";"Some university/higher education but no degree";"right-handed";"polish";"poland"
"5d1cfc4ee950480015366f7b";"BRAC2_horiLL_1st0";2;85;548,420000006445;"A";"1";0;NA;"A";"black";"blue";"magnit";3;"0";"0";"1";"1";0;"1";21;"female";"Some knowledge as amateur";"Some university/higher education but no degree";"right-handed";"polish";"poland"
"5d1cfc4ee950480015366f7b";"BRAC2_horiLL_1st0";2;86;1067,87499997881;"L";"1";0;NA;"L";"black";"blue";"parity";1;"0";"1";"1";"0";0;"1";21;"female";"Some knowledge as amateur";"Some university/higher education but no degree";"right-handed";"polish";"poland"
"5d1cfc4ee950480015366f7b";"BRAC2_horiLL_1st0";2;87;729,250000003958;"A";"1";0;NA;"A";"black";"red";"magnit";4;"0";"1";"1";"1";0;"1";21;"female";"Some knowledge as amateur";"Some university/higher education but no degree";"right-handed";"polish";"poland"
"5d1cfc4ee950480015366f7b";"BRAC2_horiLL_1st0";2;88;1215,40499999537;"A";"1";0;NA;"A";"black";"blue";"parity";6;"0";"1";"0";"1";0;"1";21;"female";"Some knowledge as amateur";"Some university/higher education but no degree";"right-handed";"polish";"poland"
"5d1cfc4ee950480015366f7b";"BRAC2_horiLL_1st0";2;89;510,774999973364;"A";"1";0;NA;"A";"black";"blue";"parity";8;"0";"0";"0";"0";0;"1";21;"female";"Some knowledge as amateur";"Some university/higher education but no degree";"right-handed";"polish";"poland"
"5d1cfc4ee950480015366f7b";"BRAC2_horiLL_1st0";2;90;1280,77499999199;"A";"1";0;NA;"A";"black";"red";"parity";2;"0";"0";"0";"1";0;"1";21;"female";"Some knowledge as amateur";"Some university/higher education but no degree";"right-handed";"polish";"poland"
"5d1cfc4ee950480015366f7b";"BRAC2_horiLL_1st0";2;91;490,20999998902;"L";"1";0;NA;"L";"black";"red";"parity";7;"0";"0";"1";"0";0;"1";21;"female";"Some knowledge as amateur";"Some university/higher education but no degree";"right-handed";"polish";"poland"
"5d1cfc4ee950480015366f7b";"BRAC2_horiLL_1st0";2;92;434,534999978496;"L";"1";0;NA;"L";"black";"blue";"magnit";6;"0";"1";"0";"1";0;"1";21;"female";"Some knowledge as amateur";"Some university/higher education but no degree";"right-handed";"polish";"poland"
"5d1cfc4ee950480015366f7b";"BRAC2_horiLL_1st0";2;93;950,68499998888;"A";"1";0;NA;"A";"black";"red";"magnit";3;"0";"0";"1";"1";0;"1";21;"female";"Some knowledge as amateur";"Some university/higher education but no degree";"right-handed";"polish";"poland"
"5d1cfc4ee950480015366f7b";"BRAC2_horiLL_1st0";2;94;641,499999997905;"A";"1";0;NA;"A";"black";"red";"parity";8;"0";"1";"0";"0";0;"1";21;"female";"Some knowledge as amateur";"Some university/higher education but no degree";"right-handed";"polish";"poland"
"5d1cfc4ee950480015366f7b";"BRAC2_horiLL_1st0";2;95;608,039999991888;"A";"1";0;NA;"A";"black";"red";"parity";6;"0";"0";"0";"0";0;"1";21;"female";"Some knowledge as amateur";"Some university/higher education but no degree";"right-handed";"polish";"poland"
"5d1cfc4ee950480015366f7b";"BRAC2_horiLL_1st0";3;0;921,819999988656;"A";"1";0;NA;"A";"black";"blue";"parity";8;"300";"99";"99";"99";99;"1";21;"female";"Some knowledge as amateur";"Some university/higher education but no degree";"right-handed";"polish";"poland"
"5d1cfc4ee950480015366f7b";"BRAC2_horiLL_1st0";3;1;550,860000017565;"A";"1";0;NA;"A";"black";"blue";"parity";4;"300";"0";"0";"0";0;"1";21;"female";"Some knowledge as amateur";"Some university/higher education but no degree";"right-handed";"polish";"poland"
"5d1cfc4ee950480015366f7b";"BRAC2_horiLL_1st0";3;2;558,204999979353;"L";"1";0;NA;"L";"black";"red";"parity";1;"300";"0";"1";"1";0;"1";21;"female";"Some knowledge as amateur";"Some university/higher education but no degree";"right-handed";"polish";"poland"
"5d1cfc4ee950480015366f7b";"BRAC2_horiLL_1st0";3;3;542,830000020331;"L";"1";0;NA;"L";"black";"red";"parity";9;"300";"0";"0";"0";0;"1";21;"female";"Some knowledge as amateur";"Some university/higher education but no degree";"right-handed";"polish";"poland"
"5d1cfc4ee950480015366f7b";"BRAC2_horiLL_1st0";3;4;674,700000003213;"A";"1";0;NA;"A";"black";"blue";"parity";2;"300";"0";"1";"1";0;"1";21;"female";"Some knowledge as amateur";"Some university/higher education but no degree";"right-handed";"polish";"poland"
"5d1cfc4ee950480015366f7b";"BRAC2_horiLL_1st0";3;5;896,050000010291;"L";"1";0;NA;"L";"black";"blue";"magnit";7;"300";"1";"1";"0";0;"1";21;"female";"Some knowledge as amateur";"Some university/higher education but no degree";"right-handed";"polish";"poland"
"5d1cfc4ee950480015366f7b";"BRAC2_horiLL_1st0";3;6;598,514999990584;"L";"1";0;NA;"L";"black";"blue";"parity";9;"300";"1";"0";"0";0;"1";21;"female";"Some knowledge as amateur";"Some university/higher education but no degree";"right-handed";"polish";"poland"
"5d1cfc4ee950480015366f7b";"BRAC2_horiLL_1st0";3;7;932,299999985844;"A";"1";0;NA;"A";"black";"red";"magnit";4;"300";"1";"1";"1";0;"1";21;"female";"Some knowledge as amateur";"Some university/higher education but no degree";"right-handed";"polish";"poland"
"5d1cfc4ee950480015366f7b";"BRAC2_horiLL_1st0";3;8;832,870000012917;"L";"1";0;NA;"L";"black";"red";"parity";1;"300";"1";"1";"0";0;"1";21;"female";"Some knowledge as amateur";"Some university/higher education but no degree";"right-handed";"polish";"poland"
"5d1cfc4ee950480015366f7b";"BRAC2_horiLL_1st0";3;9;660,934999992605;"A";"1";0;NA;"A";"black";"blue";"magnit";2;"300";"1";"1";"1";0;"1";21;"female";"Some knowledge as amateur";"Some university/higher education but no degree";"right-handed";"polish";"poland"
"5d1cfc4ee950480015366f7b";"BRAC2_horiLL_1st0";3;10;1080,35999999265;"A";"1";1;NA;"L";"black";"red";"magnit";6;"300";"0";"1";"1";0;"1";21;"female";"Some knowledge as amateur";"Some university/higher education but no degree";"right-handed";"polish";"poland"
"5d1cfc4ee950480015366f7b";"BRAC2_horiLL_1st0";3;11;1047,36500000581;"L";"1";0;NA;"L";"black";"red";"magnit";7;"300";"0";"0";"0";1;"1";21;"female";"Some knowledge as amateur";"Some university/higher education but no degree";"right-handed";"polish";"poland"
"5d1cfc4ee950480015366f7b";"BRAC2_horiLL_1st0";3;12;445,990000007441;"L";"1";0;NA;"L";"black";"red";"magnit";8;"300";"0";"0";"0";0;"1";21;"female";"Some knowledge as amateur";"Some university/higher education but no degree";"right-handed";"polish";"poland"
"5d1cfc4ee950480015366f7b";"BRAC2_horiLL_1st0";3;13;745,079999993322;"L";"1";0;NA;"L";"black";"blue";"parity";3;"300";"1";"0";"1";0;"1";21;"female";"Some knowledge as amateur";"Some university/higher education but no degree";"right-handed";"polish";"poland"
"5d1cfc4ee950480015366f7b";"BRAC2_horiLL_1st0";3;14;1127,16000000364;"L";"1";0;NA;"L";"black";"red";"magnit";8;"300";"1";"0";"1";0;"1";21;"female";"Some knowledge as amateur";"Some university/higher education but no degree";"right-handed";"polish";"poland"
"5d1cfc4ee950480015366f7b";"BRAC2_horiLL_1st0";3;15;783,230000000913;"L";"1";0;NA;"L";"black";"red";"parity";7;"300";"1";"0";"0";0;"1";21;"female";"Some knowledge as amateur";"Some university/higher education but no degree";"right-handed";"polish";"poland"
"5d1cfc4ee950480015366f7b";"BRAC2_horiLL_1st0";3;16;836,265000019921;"A";"1";0;NA;"A";"black";"blue";"parity";6;"300";"0";"1";"1";0;"1";21;"female";"Some knowledge as amateur";"Some university/higher education but no degree";"right-handed";"polish";"poland"
"5d1cfc4ee950480015366f7b";"BRAC2_horiLL_1st0";3;17;501,775000011548;"L";"1";0;NA;"L";"black";"red";"parity";9;"300";"0";"1";"1";0;"1";21;"female";"Some knowledge as amateur";"Some university/higher education but no degree";"right-handed";"polish";"poland"
"5d1cfc4ee950480015366f7b";"BRAC2_horiLL_1st0";3;18;691,430000006221;"A";"1";0;NA;"A";"black";"red";"magnit";2;"300";"1";"1";"0";0;"1";21;"female";"Some knowledge as amateur";"Some university/higher education but no degree";"right-handed";"polish";"poland"
"5d1cfc4ee950480015366f7b";"BRAC2_horiLL_1st0";3;19;546,734999981709;"A";"1";0;NA;"A";"black";"red";"magnit";1;"300";"0";"0";"0";0;"1";21;"female";"Some knowledge as amateur";"Some university/higher education but no degree";"right-handed";"polish";"poland"
"5d1cfc4ee950480015366f7b";"BRAC2_horiLL_1st0";3;20;923,204999999143;"L";"1";0;NA;"L";"black";"blue";"magnit";7;"300";"0";"1";"1";0;"1";21;"female";"Some knowledge as amateur";"Some university/higher education but no degree";"right-handed";"polish";"poland"
"5d1cfc4ee950480015366f7b";"BRAC2_horiLL_1st0";3;21;1030,91000000131;"A";"1";0;NA;"A";"black";"red";"parity";6;"300";"1";"1";"1";0;"1";21;"female";"Some knowledge as amateur";"Some university/higher education but no degree";"right-handed";"polish";"poland"
"5d1cfc4ee950480015366f7b";"BRAC2_horiLL_1st0";3;22;595,585000002757;"A";"1";0;NA;"A";"black";"red";"parity";2;"300";"0";"0";"0";0;"1";21;"female";"Some knowledge as amateur";"Some university/higher education but no degree";"right-handed";"polish";"poland"
"5d1cfc4ee950480015366f7b";"BRAC2_horiLL_1st0";3;23;1367,8249999939;"A";"1";0;NA;"A";"black";"blue";"parity";6;"300";"0";"0";"1";0;"1";21;"female";"Some knowledge as amateur";"Some university/higher education but no degree";"right-handed";"polish";"poland"
"5d1cfc4ee950480015366f7b";"BRAC2_horiLL_1st0";3;24;600,780000007944;"L";"1";0;NA;"L";"black";"blue";"parity";3;"300";"0";"1";"0";0;"1";21;"female";"Some knowledge as amateur";"Some university/higher education but no degree";"right-handed";"polish";"poland"
"5d1cfc4ee950480015366f7b";"BRAC2_horiLL_1st0";3;25;1267,37499999581;"A";"1";0;NA;"A";"black";"red";"parity";8;"300";"0";"1";"1";0;"1";21;"female";"Some knowledge as amateur";"Some university/higher education but no degree";"right-handed";"polish";"poland"
"5d1cfc4ee950480015366f7b";"BRAC2_horiLL_1st0";3;26;878,240000020014;"L";"1";0;NA;"L";"black";"blue";"magnit";6;"300";"1";"1";"1";0;"1";21;"female";"Some knowledge as amateur";"Some university/higher education but no degree";"right-handed";"polish";"poland"
"5d1cfc4ee950480015366f7b";"BRAC2_horiLL_1st0";3;27;1234,7749999899;"A";"1";0;NA;"A";"black";"blue";"parity";4;"300";"1";"1";"0";0;"1";21;"female";"Some knowledge as amateur";"Some university/higher education but no degree";"right-handed";"polish";"poland"
"5d1cfc4ee950480015366f7b";"BRAC2_horiLL_1st0";3;28;559,795000008307;"L";"1";0;NA;"L";"black";"blue";"parity";1;"300";"0";"1";"0";0;"1";21;"female";"Some knowledge as amateur";"Some university/higher education but no degree";"right-handed";"polish";"poland"
"5d1cfc4ee950480015366f7b";"BRAC2_horiLL_1st0";3;29;493,855000007898;"L";"1";0;NA;"L";"black";"red";"magnit";9;"300";"1";"0";"1";0;"1";21;"female";"Some knowledge as amateur";"Some university/higher education but no degree";"right-handed";"polish";"poland"
"5d1cfc4ee950480015366f7b";"BRAC2_horiLL_1st0";3;30;883,310000004712;"L";"1";0;NA;"L";"black";"blue";"magnit";8;"300";"0";"0";"1";0;"1";21;"female";"Some knowledge as amateur";"Some university/higher education but no degree";"right-handed";"polish";"poland"
"5d1cfc4ee950480015366f7b";"BRAC2_horiLL_1st0";3;31;933,179999992717;"A";"1";1;NA;"L";"black";"blue";"magnit";7;"300";"0";"0";"0";0;"1";21;"female";"Some knowledge as amateur";"Some university/higher education but no degree";"right-handed";"polish";"poland"
"5d1cfc4ee950480015366f7b";"BRAC2_horiLL_1st0";3;32;634,22000000719;"A";"1";0;NA;"A";"black";"blue";"magnit";2;"300";"0";"1";"0";1;"1";21;"female";"Some knowledge as amateur";"Some university/higher education but no degree";"right-handed";"polish";"poland"
"5d1cfc4ee950480015366f7b";"BRAC2_horiLL_1st0";3;33;814,729999983683;"A";"1";0;NA;"A";"black";"red";"magnit";3;"300";"0";"0";"1";0;"1";21;"female";"Some knowledge as amateur";"Some university/higher education but no degree";"right-handed";"polish";"poland"
"5d1cfc4ee950480015366f7b";"BRAC2_horiLL_1st0";3;34;703,535000007832;"A";"1";0;NA;"A";"black";"red";"magnit";2;"300";"0";"0";"0";0;"1";21;"female";"Some knowledge as amateur";"Some university/higher education but no degree";"right-handed";"polish";"poland"
"5d1cfc4ee950480015366f7b";"BRAC2_horiLL_1st0";3;35;575,400000001537;"A";"1";0;NA;"A";"black";"blue";"magnit";1;"300";"0";"0";"1";0;"1";21;"female";"Some knowledge as amateur";"Some university/higher education but no degree";"right-handed";"polish";"poland"
"5d1cfc4ee950480015366f7b";"BRAC2_horiLL_1st0";3;36;659,169999998994;"A";"1";0;NA;"A";"black";"blue";"magnit";4;"300";"0";"0";"0";0;"1";21;"female";"Some knowledge as amateur";"Some university/higher education but no degree";"right-handed";"polish";"poland"
"5d1cfc4ee950480015366f7b";"BRAC2_horiLL_1st0";3;37;568,874999997206;"A";"1";0;NA;"A";"black";"blue";"magnit";3;"300";"0";"0";"0";0;"1";21;"female";"Some knowledge as amateur";"Some university/higher education but no degree";"right-handed";"polish";"poland"
"5d1cfc4ee950480015366f7b";"BRAC2_horiLL_1st0";3;38;549,809999996796;"L";"1";0;NA;"L";"black";"blue";"parity";7;"300";"1";"1";"0";0;"1";21;"female";"Some knowledge as amateur";"Some university/higher education but no degree";"right-handed";"polish";"poland"
"5d1cfc4ee950480015366f7b";"BRAC2_horiLL_1st0";3;39;957,969999988563;"L";"1";1;NA;"A";"black";"blue";"parity";2;"300";"0";"1";"0";0;"1";21;"female";"Some knowledge as amateur";"Some university/higher education but no degree";"right-handed";"polish";"poland"
"5d1cfc4ee950480015366f7b";"BRAC2_horiLL_1st0";3;40;974,124999978812;"A";"1";0;NA;"A";"black";"blue";"magnit";1;"300";"1";"0";"0";1;"1";21;"female";"Some knowledge as amateur";"Some university/higher education but no degree";"right-handed";"polish";"poland"
"5d1cfc4ee950480015366f7b";"BRAC2_horiLL_1st0";3;41;918,669999984559;"L";"1";0;NA;"L";"black";"blue";"magnit";6;"300";"0";"1";"0";0;"1";21;"female";"Some knowledge as amateur";"Some university/higher education but no degree";"right-handed";"polish";"poland"
"5d1cfc4ee950480015366f7b";"BRAC2_horiLL_1st0";3;42;640,155000000959;"A";"1";0;NA;"A";"black";"blue";"parity";2;"300";"1";"1";"0";0;"1";21;"female";"Some knowledge as amateur";"Some university/higher education but no degree";"right-handed";"polish";"poland"
"5d1cfc4ee950480015366f7b";"BRAC2_horiLL_1st0";3;43;362,125000014203;"L";"1";1;NA;"A";"black";"red";"parity";6;"300";"0";"0";"1";0;"1";21;"female";"Some knowledge as amateur";"Some university/higher education but no degree";"right-handed";"polish";"poland"
"5d1cfc4ee950480015366f7b";"BRAC2_horiLL_1st0";3;44;628,765000001295;"L";"1";0;NA;"L";"black";"red";"parity";3;"300";"0";"1";"0";1;"1";21;"female";"Some knowledge as amateur";"Some university/higher education but no degree";"right-handed";"polish";"poland"
"5d1cfc4ee950480015366f7b";"BRAC2_horiLL_1st0";3;45;1539,02999998536;"L";"1";0;NA;"L";"black";"blue";"parity";9;"300";"0";"0";"1";0;"1";21;"female";"Some knowledge as amateur";"Some university/higher education but no degree";"right-handed";"polish";"poland"
"5d1cfc4ee950480015366f7b";"BRAC2_horiLL_1st0";3;46;557,050000003073;"L";"1";0;NA;"L";"black";"red";"parity";3;"300";"0";"0";"1";0;"1";21;"female";"Some knowledge as amateur";"Some university/higher education but no degree";"right-handed";"polish";"poland"
"5d1cfc4ee950480015366f7b";"BRAC2_horiLL_1st0";3;47;732,764999993378;"A";"1";1;NA;"L";"black";"blue";"magnit";8;"300";"1";"0";"1";0;"1";21;"female";"Some knowledge as amateur";"Some university/higher education but no degree";"right-handed";"polish";"poland"
"5d1cfc4ee950480015366f7b";"BRAC2_horiLL_1st0";3;48;766,445000015665;"L";"1";0;NA;"L";"black";"red";"parity";3;"300";"1";"0";"1";1;"1";21;"female";"Some knowledge as amateur";"Some university/higher education but no degree";"right-handed";"polish";"poland"
"5d1cfc4ee950480015366f7b";"BRAC2_horiLL_1st0";3;49;559,940000006463;"L";"1";0;NA;"L";"black";"blue";"magnit";9;"300";"1";"0";"1";0;"1";21;"female";"Some knowledge as amateur";"Some university/higher education but no degree";"right-handed";"polish";"poland"
"5d1cfc4ee950480015366f7b";"BRAC2_horiLL_1st0";3;50;527,520000003278;"L";"1";0;NA;"L";"black";"blue";"magnit";6;"300";"0";"0";"0";0;"1";21;"female";"Some knowledge as amateur";"Some university/higher education but no degree";"right-handed";"polish";"poland"
"5d1cfc4ee950480015366f7b";"BRAC2_horiLL_1st0";3;51;510,299999994459;"A";"1";0;NA;"A";"black";"red";"magnit";1;"300";"0";"1";"1";0;"1";21;"female";"Some knowledge as amateur";"Some university/higher education but no degree";"right-handed";"polish";"poland"
"5d1cfc4ee950480015366f7b";"BRAC2_horiLL_1st0";3;52;859,635000000708;"L";"1";0;NA;"L";"black";"red";"parity";7;"300";"1";"1";"0";0;"1";21;"female";"Some knowledge as amateur";"Some university/higher education but no degree";"right-handed";"polish";"poland"
"5d1cfc4ee950480015366f7b";"BRAC2_horiLL_1st0";3;53;516,865000012331;"A";"1";0;NA;"A";"black";"red";"magnit";3;"300";"1";"1";"0";0;"1";21;"female";"Some knowledge as amateur";"Some university/higher education but no degree";"right-handed";"polish";"poland"
"5d1cfc4ee950480015366f7b";"BRAC2_horiLL_1st0";3;54;667,084999993676;"A";"1";0;NA;"A";"black";"blue";"parity";6;"300";"1";"0";"1";0;"1";21;"female";"Some knowledge as amateur";"Some university/higher education but no degree";"right-handed";"polish";"poland"
"5d1cfc4ee950480015366f7b";"BRAC2_horiLL_1st0";3;55;1112,42499999935;"A";"1";0;NA;"A";"black";"red";"parity";2;"300";"0";"0";"1";0;"1";21;"female";"Some knowledge as amateur";"Some university/higher education but no degree";"right-handed";"polish";"poland"
"5d1cfc4ee950480015366f7b";"BRAC2_horiLL_1st0";3;56;914,449999982025;"A";"1";0;NA;"A";"black";"blue";"magnit";3;"300";"1";"0";"1";0;"1";21;"female";"Some knowledge as amateur";"Some university/higher education but no degree";"right-handed";"polish";"poland"
"5d1cfc4ee950480015366f7b";"BRAC2_horiLL_1st0";3;57;479,599999991478;"L";"1";0;NA;"L";"black";"blue";"parity";7;"300";"1";"1";"0";0;"1";21;"female";"Some knowledge as amateur";"Some university/higher education but no degree";"right-handed";"polish";"poland"
"5d1cfc4ee950480015366f7b";"BRAC2_horiLL_1st0";3;58;504,675000003772;"A";"1";0;NA;"A";"black";"red";"parity";2;"300";"0";"1";"1";0;"1";21;"female";"Some knowledge as amateur";"Some university/higher education but no degree";"right-handed";"polish";"poland"
"5d1cfc4ee950480015366f7b";"BRAC2_horiLL_1st0";3;59;1129,04999998864;"L";"1";0;NA;"L";"black";"red";"magnit";8;"300";"1";"1";"0";0;"1";21;"female";"Some knowledge as amateur";"Some university/higher education but no degree";"right-handed";"polish";"poland"
"5d1cfc4ee950480015366f7b";"BRAC2_horiLL_1st0";3;60;487,809999991441;"L";"1";0;NA;"L";"black";"blue";"parity";1;"300";"1";"0";"1";0;"1";21;"female";"Some knowledge as amateur";"Some university/higher education but no degree";"right-handed";"polish";"poland"
"5d1cfc4ee950480015366f7b";"BRAC2_horiLL_1st0";3;61;1038,76500000479;"A";"1";0;NA;"A";"black";"red";"parity";4;"300";"0";"1";"1";0;"1";21;"female";"Some knowledge as amateur";"Some university/higher education but no degree";"right-handed";"polish";"poland"
"5d1cfc4ee950480015366f7b";"BRAC2_horiLL_1st0";3;62;430,655000003753;"L";"1";0;NA;"L";"black";"blue";"parity";3;"300";"0";"1";"1";0;"1";21;"female";"Some knowledge as amateur";"Some university/higher education but no degree";"right-handed";"polish";"poland"
"5d1cfc4ee950480015366f7b";"BRAC2_horiLL_1st0";3;63;597,130000009201;"A";"1";0;NA;"A";"black";"blue";"parity";8;"300";"0";"1";"0";0;"1";21;"female";"Some knowledge as amateur";"Some university/higher education but no degree";"right-handed";"polish";"poland"
"5d1cfc4ee950480015366f7b";"BRAC2_horiLL_1st0";3;64;542,134999996051;"A";"1";0;NA;"A";"black";"blue";"magnit";1;"300";"1";"0";"0";0;"1";21;"female";"Some knowledge as amateur";"Some university/higher education but no degree";"right-handed";"polish";"poland"
"5d1cfc4ee950480015366f7b";"BRAC2_horiLL_1st0";3;65;524,739999993471;"L";"1";0;NA;"L";"black";"blue";"magnit";9;"300";"0";"1";"0";0;"1";21;"female";"Some knowledge as amateur";"Some university/higher education but no degree";"right-handed";"polish";"poland"
"5d1cfc4ee950480015366f7b";"BRAC2_horiLL_1st0";3;66;614,854999992531;"A";"1";0;NA;"A";"black";"red";"parity";4;"300";"1";"1";"1";0;"1";21;"female";"Some knowledge as amateur";"Some university/higher education but no degree";"right-handed";"polish";"poland"
"5d1cfc4ee950480015366f7b";"BRAC2_horiLL_1st0";3;67;522,460000007413;"L";"1";0;NA;"L";"black";"red";"magnit";6;"300";"1";"1";"0";0;"1";21;"female";"Some knowledge as amateur";"Some university/higher education but no degree";"right-handed";"polish";"poland"
"5d1cfc4ee950480015366f7b";"BRAC2_horiLL_1st0";3;68;695,915000018431;"L";"1";0;NA;"L";"black";"red";"magnit";9;"300";"0";"0";"0";0;"1";21;"female";"Some knowledge as amateur";"Some university/higher education but no degree";"right-handed";"polish";"poland"
"5d1cfc4ee950480015366f7b";"BRAC2_horiLL_1st0";3;69;768,46000002115;"A";"1";0;NA;"A";"black";"red";"magnit";4;"300";"0";"1";"0";0;"1";21;"female";"Some knowledge as amateur";"Some university/higher education but no degree";"right-handed";"polish";"poland"
"5d1cfc4ee950480015366f7b";"BRAC2_horiLL_1st0";3;70;601,194999995641;"L";"1";0;NA;"L";"black";"red";"magnit";7;"300";"0";"1";"0";0;"1";21;"female";"Some knowledge as amateur";"Some university/higher education but no degree";"right-handed";"polish";"poland"
"5d1cfc4ee950480015366f7b";"BRAC2_horiLL_1st0";3;71;1037,51999998349;"L";"1";0;NA;"L";"black";"red";"parity";9;"300";"1";"0";"0";0;"1";21;"female";"Some knowledge as amateur";"Some university/higher education but no degree";"right-handed";"polish";"poland"
"5d1cfc4ee950480015366f7b";"BRAC2_horiLL_1st0";3;72;418,760000000475;"A";"1";1;NA;"L";"black";"blue";"parity";1;"300";"0";"0";"1";0;"1";21;"female";"Some knowledge as amateur";"Some university/higher education but no degree";"right-handed";"polish";"poland"
"5d1cfc4ee950480015366f7b";"BRAC2_horiLL_1st0";3;73;886,264999979176;"A";"1";0;NA;"A";"black";"red";"magnit";4;"300";"1";"1";"1";1;"1";21;"female";"Some knowledge as amateur";"Some university/higher education but no degree";"right-handed";"polish";"poland"
"5d1cfc4ee950480015366f7b";"BRAC2_horiLL_1st0";3;74;1934,84999999055;"A";"1";0;NA;"A";"black";"blue";"parity";8;"300";"1";"0";"1";0;"1";21;"female";"Some knowledge as amateur";"Some university/higher education but no degree";"right-handed";"polish";"poland"
"5d1cfc4ee950480015366f7b";"BRAC2_horiLL_1st0";3;75;721,134999999776;"A";"1";0;NA;"A";"black";"blue";"magnit";2;"300";"1";"0";"0";0;"1";21;"female";"Some knowledge as amateur";"Some university/higher education but no degree";"right-handed";"polish";"poland"
"5d1cfc4ee950480015366f7b";"BRAC2_horiLL_1st0";3;76;1208,32000000519;"A";"1";0;NA;"A";"black";"blue";"parity";4;"300";"1";"0";"0";0;"1";21;"female";"Some knowledge as amateur";"Some university/higher education but no degree";"right-handed";"polish";"poland"
"5d1cfc4ee950480015366f7b";"BRAC2_horiLL_1st0";3;77;617,264999978943;"A";"1";0;NA;"A";"black";"red";"magnit";1;"300";"1";"0";"1";0;"1";21;"female";"Some knowledge as amateur";"Some university/higher education but no degree";"right-handed";"polish";"poland"
"5d1cfc4ee950480015366f7b";"BRAC2_horiLL_1st0";3;78;868,600000016158;"A";"1";0;NA;"A";"black";"red";"parity";4;"300";"1";"0";"0";0;"1";21;"female";"Some knowledge as amateur";"Some university/higher education but no degree";"right-handed";"polish";"poland"
"5d1cfc4ee950480015366f7b";"BRAC2_horiLL_1st0";3;79;1287,08999999799;"L";"1";0;NA;"L";"black";"red";"magnit";6;"300";"1";"1";"0";0;"1";21;"female";"Some knowledge as amateur";"Some university/higher education but no degree";"right-handed";"polish";"poland"
"5d1cfc4ee950480015366f7b";"BRAC2_horiLL_1st0";3;80;1189,92499998421;"L";"1";0;NA;"L";"black";"red";"parity";7;"300";"1";"0";"0";0;"1";21;"female";"Some knowledge as amateur";"Some university/higher education but no degree";"right-handed";"polish";"poland"
"5d1cfc4ee950480015366f7b";"BRAC2_horiLL_1st0";3;81;1155,25999999954;"L";"1";0;NA;"L";"black";"blue";"magnit";8;"300";"1";"0";"1";0;"1";21;"female";"Some knowledge as amateur";"Some university/higher education but no degree";"right-handed";"polish";"poland"
"5d1cfc4ee950480015366f7b";"BRAC2_horiLL_1st0";3;82;527,540000010049;"L";"1";0;NA;"L";"black";"blue";"parity";7;"300";"1";"0";"0";0;"1";21;"female";"Some knowledge as amateur";"Some university/higher education but no degree";"right-handed";"polish";"poland"
"5d1cfc4ee950480015366f7b";"BRAC2_horiLL_1st0";3;83;1213,71999999974;"A";"1";0;NA;"A";"black";"red";"parity";8;"300";"0";"1";"1";0;"1";21;"female";"Some knowledge as amateur";"Some university/higher education but no degree";"right-handed";"polish";"poland"
"5d1cfc4ee950480015366f7b";"BRAC2_horiLL_1st0";3;84;1099,47500002454;"L";"1";0;NA;"L";"black";"red";"magnit";7;"300";"1";"1";"0";0;"1";21;"female";"Some knowledge as amateur";"Some university/higher education but no degree";"right-handed";"polish";"poland"
"5d1cfc4ee950480015366f7b";"BRAC2_horiLL_1st0";3;85;550,844999990659;"A";"1";0;NA;"A";"black";"blue";"magnit";4;"300";"0";"1";"1";0;"1";21;"female";"Some knowledge as amateur";"Some university/higher education but no degree";"right-handed";"polish";"poland"
"5d1cfc4ee950480015366f7b";"BRAC2_horiLL_1st0";3;86;569,470000016736;"L";"1";0;NA;"L";"black";"blue";"parity";9;"300";"1";"1";"0";0;"1";21;"female";"Some knowledge as amateur";"Some university/higher education but no degree";"right-handed";"polish";"poland"
"5d1cfc4ee950480015366f7b";"BRAC2_horiLL_1st0";3;87;1189,99499999336;"A";"1";0;NA;"A";"black";"red";"magnit";2;"300";"1";"1";"1";0;"1";21;"female";"Some knowledge as amateur";"Some university/higher education but no degree";"right-handed";"polish";"poland"
"5d1cfc4ee950480015366f7b";"BRAC2_horiLL_1st0";3;88;417,110000009416;"L";"1";0;NA;"L";"black";"blue";"magnit";9;"300";"0";"1";"1";0;"1";21;"female";"Some knowledge as amateur";"Some university/higher education but no degree";"right-handed";"polish";"poland"
"5d1cfc4ee950480015366f7b";"BRAC2_horiLL_1st0";3;89;598,765000002459;"L";"1";0;NA;"L";"black";"red";"parity";1;"300";"1";"0";"1";0;"1";21;"female";"Some knowledge as amateur";"Some university/higher education but no degree";"right-handed";"polish";"poland"
"5d1cfc4ee950480015366f7b";"BRAC2_horiLL_1st0";3;90;894,6350000042;"A";"1";0;NA;"A";"black";"red";"parity";8;"300";"0";"1";"0";0;"1";21;"female";"Some knowledge as amateur";"Some university/higher education but no degree";"right-handed";"polish";"poland"
"5d1cfc4ee950480015366f7b";"BRAC2_horiLL_1st0";3;91;457,130000024335;"L";"1";1;NA;"A";"black";"blue";"magnit";3;"300";"1";"0";"1";0;"1";21;"female";"Some knowledge as amateur";"Some university/higher education but no degree";"right-handed";"polish";"poland"
"5d1cfc4ee950480015366f7b";"BRAC2_horiLL_1st0";3;92;342,085000011139;"L";"1";0;NA;"L";"black";"red";"magnit";9;"300";"0";"1";"1";1;"1";21;"female";"Some knowledge as amateur";"Some university/higher education but no degree";"right-handed";"polish";"poland"
"5d1cfc4ee950480015366f7b";"BRAC2_horiLL_1st0";3;93;777,054999984102;"A";"1";0;NA;"A";"black";"red";"parity";6;"300";"1";"1";"0";0;"1";21;"female";"Some knowledge as amateur";"Some university/higher education but no degree";"right-handed";"polish";"poland"
"5d1cfc4ee950480015366f7b";"BRAC2_horiLL_1st0";3;94;940,280000009807;"A";"1";0;NA;"A";"black";"red";"magnit";3;"300";"1";"0";"0";0;"1";21;"female";"Some knowledge as amateur";"Some university/higher education but no degree";"right-handed";"polish";"poland"
"5d1cfc4ee950480015366f7b";"BRAC2_horiLL_1st0";3;95;421,934999991208;"L";"1";1;NA;"A";"black";"blue";"magnit";4;"300";"0";"0";"1";0;"1";21;"female";"Some knowledge as amateur";"Some university/higher education but no degree";"right-handed";"polish";"poland"
"5ec15cab0c15fc0358052c00";"BRAC2_vertLL_1st300";0;0;817,465000000084;"A";"1";0;NA;"A";"black";"red";"parity";2;"300";"99";"99";"99";99;"1";25;"male";"Not at all";"Some university/higher education but no degree";"right-handed";"Polish";"Poland"
"5ec15cab0c15fc0358052c00";"BRAC2_vertLL_1st300";0;1;1042,04000000027;"L";"1";0;NA;"L";"black";"blue";"parity";1;"300";"0";"1";"1";0;"1";25;"male";"Not at all";"Some university/higher education but no degree";"right-handed";"Polish";"Poland"
"5ec15cab0c15fc0358052c00";"BRAC2_vertLL_1st300";0;2;1220,90999998909;"A";"1";0;NA;"A";"black";"blue";"parity";8;"300";"0";"1";"0";0;"1";25;"male";"Not at all";"Some university/higher education but no degree";"right-handed";"Polish";"Poland"
"5ec15cab0c15fc0358052c00";"BRAC2_vertLL_1st300";0;3;1211,78499999223;"A";"1";0;NA;"A";"black";"red";"parity";6;"300";"0";"0";"1";0;"1";25;"male";"Not at all";"Some university/higher education but no degree";"right-handed";"Polish";"Poland"
"5ec15cab0c15fc0358052c00";"BRAC2_vertLL_1st300";0;4;506,784999990487;"L";"1";0;NA;"L";"black";"blue";"magnit";9;"300";"1";"1";"1";0;"1";25;"male";"Not at all";"Some university/higher education but no degree";"right-handed";"Polish";"Poland"
