"pp";"counterbalance";"blockNum";"trialNum";"rt";"Response";"Attempt";"error";"Timed.Out";"ANSWER";"cuecolor";"framecolor";"task";"stimulus";"cocoa";"Participant.OS";"Participant.Browser";"ppViewportSize";"task_R";"ANSWER_R";"framecolor_R";"error_R"
"5eba67eb17a5461ab1182c5a";"BRAC2_horiAA_1st300";0;0;1047,24999982864;"L";1;1;NA;"A";"black";"blue";"magnit";7;300;"Windows 10";"Chrome 83.0.4103.116";"1366x657";99;99;99;99
"5eba67eb17a5461ab1182c5a";"BRAC2_horiAA_1st300";0;1;1250,71500008926;"L";1;0;NA;"L";"black";"red";"magnit";1;300;"Windows 10";"Chrome 83.0.4103.116";"1366x657";0;1;1;1
"5eba67eb17a5461ab1182c5a";"BRAC2_horiAA_1st300";0;2;1008,48000007682;"A";1;0;NA;"A";"black";"red";"parity";3;300;"Windows 10";"Chrome 83.0.4103.116";"1366x657";1;1;0;0
"5eba67eb17a5461ab1182c5a";"BRAC2_horiAA_1st300";0;3;641,689999960363;"L";1;0;NA;"L";"black";"blue";"parity";6;300;"Windows 10";"Chrome 83.0.4103.116";"1366x657";0;1;1;0
"5eba67eb17a5461ab1182c5a";"BRAC2_horiAA_1st300";0;4;577,169999945909;"A";1;0;NA;"A";"black";"red";"parity";3;300;"Windows 10";"Chrome 83.0.4103.116";"1366x657";0;1;1;0
"5eba67eb17a5461ab1182c5a";"BRAC2_horiAA_1st300";0;5;646,414999850094;"L";1;0;NA;"L";"black";"red";"parity";4;300;"Windows 10";"Chrome 83.0.4103.116";"1366x657";0;1;0;0
"5eba67eb17a5461ab1182c5a";"BRAC2_horiAA_1st300";0;6;601,500000106171;"A";1;0;NA;"A";"black";"blue";"parity";3;300;"Windows 10";"Chrome 83.0.4103.116";"1366x657";0;1;1;0
"5eba67eb17a5461ab1182c5a";"BRAC2_horiAA_1st300";0;7;778,025000123307;"A";1;1;NA;"L";"black";"red";"magnit";1;300;"Windows 10";"Chrome 83.0.4103.116";"1366x657";1;1;1;0
"5eba67eb17a5461ab1182c5a";"BRAC2_horiAA_1st300";0;8;773,065000073984;"L";1;0;NA;"L";"black";"blue";"parity";8;300;"Windows 10";"Chrome 83.0.4103.116";"1366x657";1;0;1;1
"5eba67eb17a5461ab1182c5a";"BRAC2_horiAA_1st300";0;9;860,795000102371;"A";1;0;NA;"A";"black";"blue";"magnit";9;300;"Windows 10";"Chrome 83.0.4103.116";"1366x657";1;1;0;0
"5eba67eb17a5461ab1182c5a";"BRAC2_horiAA_1st300";0;10;1250,7499998901;"A";1;0;NA;"A";"black";"blue";"magnit";8;300;"Windows 10";"Chrome 83.0.4103.116";"1366x657";0;0;0;0
"5eba67eb17a5461ab1182c5a";"BRAC2_horiAA_1st300";0;11;2146,26999991015;"A";1;0;NA;"A";"black";"blue";"parity";7;300;"Windows 10";"Chrome 83.0.4103.116";"1366x657";1;0;0;0
"5eba67eb17a5461ab1182c5a";"BRAC2_horiAA_1st300";0;12;951,020000036806;"L";1;0;NA;"L";"black";"red";"magnit";4;300;"Windows 10";"Chrome 83.0.4103.116";"1366x657";1;1;1;0
"5eba67eb17a5461ab1182c5a";"BRAC2_horiAA_1st300";0;13;1559,92999998853;"A";1;0;NA;"A";"black";"blue";"parity";1;300;"Windows 10";"Chrome 83.0.4103.116";"1366x657";1;1;1;0
"5eba67eb17a5461ab1182c5a";"BRAC2_horiAA_1st300";0;14;1565,18499995582;"L";1;1;NA;"A";"black";"red";"parity";9;300;"Windows 10";"Chrome 83.0.4103.116";"1366x657";0;0;1;0
"5eba67eb17a5461ab1182c5a";"BRAC2_horiAA_1st300";0;15;659,080000128597;"L";1;0;NA;"L";"black";"red";"parity";6;300;"Windows 10";"Chrome 83.0.4103.116";"1366x657";0;1;0;1
"5eba67eb17a5461ab1182c5a";"BRAC2_horiAA_1st300";0;16;894,175000023097;"A";1;0;NA;"A";"black";"red";"parity";7;300;"Windows 10";"Chrome 83.0.4103.116";"1366x657";0;1;0;0
"5eba67eb17a5461ab1182c5a";"BRAC2_horiAA_1st300";0;17;497,37500003539;"L";1;0;NA;"L";"black";"blue";"parity";6;300;"Windows 10";"Chrome 83.0.4103.116";"1366x657";0;1;1;0
"5eba67eb17a5461ab1182c5a";"BRAC2_horiAA_1st300";0;18;911,694999784231;"A";1;0;NA;"A";"black";"blue";"magnit";7;300;"Windows 10";"Chrome 83.0.4103.116";"1366x657";1;1;0;0
"5eba67eb17a5461ab1182c5a";"BRAC2_horiAA_1st300";0;19;1062,58500018157;"A";1;0;NA;"A";"black";"red";"parity";3;300;"Windows 10";"Chrome 83.0.4103.116";"1366x657";1;0;1;0
"5eba67eb17a5461ab1182c5a";"BRAC2_horiAA_1st300";0;20;1377,98000010662;"L";1;0;NA;"L";"black";"blue";"magnit";2;300;"Windows 10";"Chrome 83.0.4103.116";"1366x657";1;1;1;0
"5eba67eb17a5461ab1182c5a";"BRAC2_horiAA_1st300";0;21;1012,98499992117;"A";1;0;NA;"A";"black";"blue";"magnit";6;300;"Windows 10";"Chrome 83.0.4103.116";"1366x657";0;1;0;0
"5eba67eb17a5461ab1182c5a";"BRAC2_horiAA_1st300";0;22;677,404999965802;"A";1;0;NA;"A";"black";"red";"parity";7;300;"Windows 10";"Chrome 83.0.4103.116";"1366x657";1;0;1;0
"5eba67eb17a5461ab1182c5a";"BRAC2_horiAA_1st300";0;23;665,825000032783;"L";1;1;NA;"A";"black";"blue";"magnit";8;300;"Windows 10";"Chrome 83.0.4103.116";"1366x657";1;0;1;0
"5eba67eb17a5461ab1182c5a";"BRAC2_horiAA_1st300";0;24;1966,95000003092;"A";1;1;NA;"L";"black";"blue";"parity";2;300;"Windows 10";"Chrome 83.0.4103.116";"1366x657";1;1;0;1
"5eba67eb17a5461ab1182c5a";"BRAC2_horiAA_1st300";0;25;1377,5649999734;"A";1;0;NA;"A";"black";"blue";"parity";3;300;"Windows 10";"Chrome 83.0.4103.116";"1366x657";0;1;0;1
"5eba67eb17a5461ab1182c5a";"BRAC2_horiAA_1st300";0;26;1223,17999997176;"A";1;0;NA;"A";"black";"blue";"magnit";6;300;"Windows 10";"Chrome 83.0.4103.116";"1366x657";1;0;0;0
"5eba67eb17a5461ab1182c5a";"BRAC2_horiAA_1st300";0;27;525,045000016689;"A";1;0;NA;"A";"black";"blue";"magnit";9;300;"Windows 10";"Chrome 83.0.4103.116";"1366x657";0;0;0;0
"5eba67eb17a5461ab1182c5a";"BRAC2_horiAA_1st300";0;28;797,294999938458;"A";1;0;NA;"A";"black";"blue";"parity";7;300;"Windows 10";"Chrome 83.0.4103.116";"1366x657";1;0;0;0
"5eba67eb17a5461ab1182c5a";"BRAC2_horiAA_1st300";0;29;824,860000051558;"L";1;0;NA;"L";"black";"blue";"magnit";1;300;"Windows 10";"Chrome 83.0.4103.116";"1366x657";1;1;0;0
"5eba67eb17a5461ab1182c5a";"BRAC2_horiAA_1st300";0;30;426,135000074282;"L";1;0;NA;"L";"black";"red";"magnit";2;300;"Windows 10";"Chrome 83.0.4103.116";"1366x657";0;0;1;0
"5eba67eb17a5461ab1182c5a";"BRAC2_horiAA_1st300";0;31;453,914999961853;"A";1;0;NA;"A";"black";"red";"magnit";6;300;"Windows 10";"Chrome 83.0.4103.116";"1366x657";0;1;0;0
"5eba67eb17a5461ab1182c5a";"BRAC2_horiAA_1st300";0;32;473,684999858961;"L";1;0;NA;"L";"black";"blue";"magnit";2;300;"Windows 10";"Chrome 83.0.4103.116";"1366x657";0;1;1;0
"5eba67eb17a5461ab1182c5a";"BRAC2_horiAA_1st300";0;33;822,515000123531;"L";1;0;NA;"L";"black";"red";"parity";8;300;"Windows 10";"Chrome 83.0.4103.116";"1366x657";1;0;1;0
"5eba67eb17a5461ab1182c5a";"BRAC2_horiAA_1st300";0;34;1528,53500004858;"L";1;0;NA;"L";"black";"blue";"magnit";4;300;"Windows 10";"Chrome 83.0.4103.116";"1366x657";1;0;1;0
"5eba67eb17a5461ab1182c5a";"BRAC2_horiAA_1st300";0;35;721,835000207648;"L";1;0;NA;"L";"black";"blue";"magnit";3;300;"Windows 10";"Chrome 83.0.4103.116";"1366x657";0;0;0;0
"5eba67eb17a5461ab1182c5a";"BRAC2_horiAA_1st300";0;36;479,090000037104;"L";1;0;NA;"L";"black";"blue";"magnit";4;300;"Windows 10";"Chrome 83.0.4103.116";"1366x657";0;0;0;0
"5eba67eb17a5461ab1182c5a";"BRAC2_horiAA_1st300";0;37;1721,54500009492;"L";1;0;NA;"L";"black";"blue";"parity";2;300;"Windows 10";"Chrome 83.0.4103.116";"1366x657";1;0;0;0
"5eba67eb17a5461ab1182c5a";"BRAC2_horiAA_1st300";0;38;666,740000015125;"A";1;0;NA;"A";"black";"red";"parity";1;300;"Windows 10";"Chrome 83.0.4103.116";"1366x657";0;1;1;0
"5eba67eb17a5461ab1182c5a";"BRAC2_horiAA_1st300";0;39;2271,44999988377;"A";1;0;NA;"A";"black";"blue";"magnit";7;300;"Windows 10";"Chrome 83.0.4103.116";"1366x657";1;0;1;0
"5eba67eb17a5461ab1182c5a";"BRAC2_horiAA_1st300";0;40;482,534999959171;"A";1;0;NA;"A";"black";"blue";"magnit";9;300;"Windows 10";"Chrome 83.0.4103.116";"1366x657";0;0;0;0
"5eba67eb17a5461ab1182c5a";"BRAC2_horiAA_1st300";0;41;616,094999946654;"L";1;0;NA;"L";"black";"blue";"magnit";3;300;"Windows 10";"Chrome 83.0.4103.116";"1366x657";0;1;0;0
"5eba67eb17a5461ab1182c5a";"BRAC2_horiAA_1st300";0;42;559,70500013791;"A";1;0;NA;"A";"black";"blue";"parity";1;300;"Windows 10";"Chrome 83.0.4103.116";"1366x657";1;1;0;0
"5eba67eb17a5461ab1182c5a";"BRAC2_horiAA_1st300";0;43;2010,49499982037;"L";1;0;NA;"L";"black";"red";"magnit";3;300;"Windows 10";"Chrome 83.0.4103.116";"1366x657";1;1;1;0
"5eba67eb17a5461ab1182c5a";"BRAC2_horiAA_1st300";0;44;682,570000179112;"A";1;0;NA;"A";"black";"red";"magnit";7;300;"Windows 10";"Chrome 83.0.4103.116";"1366x657";0;1;0;0
"5eba67eb17a5461ab1182c5a";"BRAC2_horiAA_1st300";0;45;424,265000037849;"L";1;0;NA;"L";"black";"red";"magnit";3;300;"Windows 10";"Chrome 83.0.4103.116";"1366x657";0;1;0;0
"5eba67eb17a5461ab1182c5a";"BRAC2_horiAA_1st300";0;46;854,404999874532;"L";1;0;NA;"L";"black";"blue";"parity";6;300;"Windows 10";"Chrome 83.0.4103.116";"1366x657";1;0;1;0
"5eba67eb17a5461ab1182c5a";"BRAC2_horiAA_1st300";0;47;563,395000062883;"A";1;0;NA;"A";"black";"red";"parity";9;300;"Windows 10";"Chrome 83.0.4103.116";"1366x657";0;1;1;0
"5eba67eb17a5461ab1182c5a";"BRAC2_horiAA_1st300";0;48;1014,08499991521;"L";1;0;NA;"L";"black";"red";"parity";4;300;"Windows 10";"Chrome 83.0.4103.116";"1366x657";0;1;0;0
"5eba67eb17a5461ab1182c5a";"BRAC2_horiAA_1st300";0;49;1159,4000000041;"L";1;0;NA;"L";"black";"red";"parity";8;300;"Windows 10";"Chrome 83.0.4103.116";"1366x657";0;0;0;0
"5eba67eb17a5461ab1182c5a";"BRAC2_horiAA_1st300";0;50;515,535000013188;"L";1;0;NA;"L";"black";"red";"parity";4;300;"Windows 10";"Chrome 83.0.4103.116";"1366x657";0;0;0;0
"5eba67eb17a5461ab1182c5a";"BRAC2_horiAA_1st300";0;51;462,555000092834;"L";1;0;NA;"L";"black";"blue";"parity";8;300;"Windows 10";"Chrome 83.0.4103.116";"1366x657";0;0;1;0
"5eba67eb17a5461ab1182c5a";"BRAC2_horiAA_1st300";0;52;458,924999926239;"A";1;0;NA;"A";"black";"blue";"parity";7;300;"Windows 10";"Chrome 83.0.4103.116";"1366x657";0;1;0;0
"5eba67eb17a5461ab1182c5a";"BRAC2_horiAA_1st300";0;53;1312,05499987118;"A";1;0;NA;"A";"black";"red";"magnit";8;300;"Windows 10";"Chrome 83.0.4103.116";"1366x657";1;0;1;0
"5eba67eb17a5461ab1182c5a";"BRAC2_horiAA_1st300";0;54;700,345000019297;"L";1;0;NA;"L";"black";"red";"parity";6;300;"Windows 10";"Chrome 83.0.4103.116";"1366x657";1;1;0;0
"5eba67eb17a5461ab1182c5a";"BRAC2_horiAA_1st300";0;55;1455,39500005543;"A";1;1;NA;"L";"black";"blue";"parity";2;300;"Windows 10";"Chrome 83.0.4103.116";"1366x657";0;0;1;0
"5eba67eb17a5461ab1182c5a";"BRAC2_horiAA_1st300";0;56;748,670000117272;"A";1;0;NA;"A";"black";"red";"magnit";7;300;"Windows 10";"Chrome 83.0.4103.116";"1366x657";1;1;1;1
"5eba67eb17a5461ab1182c5a";"BRAC2_horiAA_1st300";0;57;689,835000084713;"L";1;0;NA;"L";"black";"blue";"parity";4;300;"Windows 10";"Chrome 83.0.4103.116";"1366x657";1;1;1;0
"5eba67eb17a5461ab1182c5a";"BRAC2_horiAA_1st300";0;58;1081,01999992505;"A";1;0;NA;"A";"black";"red";"magnit";8;300;"Windows 10";"Chrome 83.0.4103.116";"1366x657";1;1;1;0
"5eba67eb17a5461ab1182c5a";"BRAC2_horiAA_1st300";0;59;617,245000088587;"A";1;0;NA;"A";"black";"red";"magnit";6;300;"Windows 10";"Chrome 83.0.4103.116";"1366x657";0;0;0;0
"5eba67eb17a5461ab1182c5a";"BRAC2_horiAA_1st300";0;60;694,369999924675;"L";1;0;NA;"L";"black";"red";"parity";8;300;"Windows 10";"Chrome 83.0.4103.116";"1366x657";1;1;0;0
"5eba67eb17a5461ab1182c5a";"BRAC2_horiAA_1st300";0;61;618,005000054836;"A";1;0;NA;"A";"black";"red";"magnit";9;300;"Windows 10";"Chrome 83.0.4103.116";"1366x657";1;1;0;0
"5eba67eb17a5461ab1182c5a";"BRAC2_horiAA_1st300";0;62;800,069999881089;"L";1;0;NA;"L";"black";"blue";"parity";4;300;"Windows 10";"Chrome 83.0.4103.116";"1366x657";1;1;1;0
"5eba67eb17a5461ab1182c5a";"BRAC2_horiAA_1st300";0;63;1315,98000018857;"A";1;0;NA;"A";"black";"red";"parity";9;300;"Windows 10";"Chrome 83.0.4103.116";"1366x657";0;1;1;0
"5eba67eb17a5461ab1182c5a";"BRAC2_horiAA_1st300";0;64;566,409999970347;"A";1;0;NA;"A";"black";"blue";"parity";1;300;"Windows 10";"Chrome 83.0.4103.116";"1366x657";0;0;1;0
"5eba67eb17a5461ab1182c5a";"BRAC2_horiAA_1st300";0;65;546,930000185966;"A";1;0;NA;"A";"black";"red";"parity";7;300;"Windows 10";"Chrome 83.0.4103.116";"1366x657";0;0;1;0
"5eba67eb17a5461ab1182c5a";"BRAC2_horiAA_1st300";0;66;622,729999944568;"L";1;0;NA;"L";"black";"red";"parity";2;300;"Windows 10";"Chrome 83.0.4103.116";"1366x657";0;1;0;0
"5eba67eb17a5461ab1182c5a";"BRAC2_horiAA_1st300";0;67;1900,82500013523;"L";1;0;NA;"L";"black";"red";"magnit";4;300;"Windows 10";"Chrome 83.0.4103.116";"1366x657";1;0;0;0
"5eba67eb17a5461ab1182c5a";"BRAC2_horiAA_1st300";0;68;756,495000096038;"L";1;0;NA;"L";"black";"red";"parity";2;300;"Windows 10";"Chrome 83.0.4103.116";"1366x657";1;0;0;0
"5eba67eb17a5461ab1182c5a";"BRAC2_horiAA_1st300";0;69;616,459999931976;"L";1;0;NA;"L";"black";"red";"parity";6;300;"Windows 10";"Chrome 83.0.4103.116";"1366x657";0;0;0;0
"5eba67eb17a5461ab1182c5a";"BRAC2_horiAA_1st300";0;70;482,925000134856;"L";1;0;NA;"L";"black";"red";"parity";2;300;"Windows 10";"Chrome 83.0.4103.116";"1366x657";0;0;0;0
"5eba67eb17a5461ab1182c5a";"BRAC2_horiAA_1st300";0;71;481,425000121817;"L";1;0;NA;"L";"black";"blue";"parity";8;300;"Windows 10";"Chrome 83.0.4103.116";"1366x657";0;0;1;0
"5eba67eb17a5461ab1182c5a";"BRAC2_horiAA_1st300";0;72;768,489999929443;"A";1;0;NA;"A";"black";"red";"magnit";6;300;"Windows 10";"Chrome 83.0.4103.116";"1366x657";1;1;1;0
"5eba67eb17a5461ab1182c5a";"BRAC2_horiAA_1st300";0;73;549,714999971911;"L";1;0;NA;"L";"black";"red";"magnit";2;300;"Windows 10";"Chrome 83.0.4103.116";"1366x657";0;1;0;0
"5eba67eb17a5461ab1182c5a";"BRAC2_horiAA_1st300";0;74;525,885000126436;"L";1;0;NA;"L";"black";"red";"magnit";3;300;"Windows 10";"Chrome 83.0.4103.116";"1366x657";0;0;0;0
"5eba67eb17a5461ab1182c5a";"BRAC2_horiAA_1st300";0;75;506,085000000894;"L";1;0;NA;"L";"black";"red";"magnit";1;300;"Windows 10";"Chrome 83.0.4103.116";"1366x657";0;0;0;0
"5eba67eb17a5461ab1182c5a";"BRAC2_horiAA_1st300";0;76;512,390000047162;"A";1;0;NA;"A";"black";"blue";"parity";9;300;"Windows 10";"Chrome 83.0.4103.116";"1366x657";1;1;1;0
"5eba67eb17a5461ab1182c5a";"BRAC2_horiAA_1st300";0;77;1085,87999991141;"L";1;0;NA;"L";"black";"blue";"magnit";3;300;"Windows 10";"Chrome 83.0.4103.116";"1366x657";1;1;0;0
"5eba67eb17a5461ab1182c5a";"BRAC2_horiAA_1st300";0;78;815,29500009492;"L";1;1;NA;"A";"black";"blue";"parity";9;300;"Windows 10";"Chrome 83.0.4103.116";"1366x657";1;1;0;0
"5eba67eb17a5461ab1182c5a";"BRAC2_horiAA_1st300";0;79;696,304999990389;"L";1;0;NA;"L";"black";"blue";"magnit";4;300;"Windows 10";"Chrome 83.0.4103.116";"1366x657";1;1;0;1
"5eba67eb17a5461ab1182c5a";"BRAC2_horiAA_1st300";0;80;1503,32000013441;"A";1;0;NA;"A";"black";"blue";"parity";3;300;"Windows 10";"Chrome 83.0.4103.116";"1366x657";1;1;0;0
"5eba67eb17a5461ab1182c5a";"BRAC2_horiAA_1st300";0;81;1294,34500006028;"L";1;0;NA;"L";"black";"blue";"magnit";2;300;"Windows 10";"Chrome 83.0.4103.116";"1366x657";1;1;0;0
"5eba67eb17a5461ab1182c5a";"BRAC2_horiAA_1st300";0;82;496,829999843612;"A";1;0;NA;"A";"black";"red";"magnit";9;300;"Windows 10";"Chrome 83.0.4103.116";"1366x657";0;1;1;0
"5eba67eb17a5461ab1182c5a";"BRAC2_horiAA_1st300";0;83;484,019999857992;"A";1;0;NA;"A";"black";"blue";"magnit";8;300;"Windows 10";"Chrome 83.0.4103.116";"1366x657";0;0;1;0
"5eba67eb17a5461ab1182c5a";"BRAC2_horiAA_1st300";0;84;982,645000098273;"A";1;0;NA;"A";"black";"red";"parity";1;300;"Windows 10";"Chrome 83.0.4103.116";"1366x657";1;0;1;0
"5eba67eb17a5461ab1182c5a";"BRAC2_horiAA_1st300";0;85;498,350000008941;"A";1;0;NA;"A";"black";"red";"magnit";9;300;"Windows 10";"Chrome 83.0.4103.116";"1366x657";1;0;0;0
"5eba67eb17a5461ab1182c5a";"BRAC2_horiAA_1st300";0;86;599,859999958426;"L";1;0;NA;"L";"black";"blue";"magnit";1;300;"Windows 10";"Chrome 83.0.4103.116";"1366x657";0;1;1;0
"5eba67eb17a5461ab1182c5a";"BRAC2_horiAA_1st300";0;87;901,545000029728;"A";1;0;NA;"A";"black";"blue";"parity";9;300;"Windows 10";"Chrome 83.0.4103.116";"1366x657";1;1;0;0
"5eba67eb17a5461ab1182c5a";"BRAC2_horiAA_1st300";0;88;875,090000219643;"L";1;0;NA;"L";"black";"blue";"magnit";1;300;"Windows 10";"Chrome 83.0.4103.116";"1366x657";1;1;0;0
"5eba67eb17a5461ab1182c5a";"BRAC2_horiAA_1st300";0;89;641,399999847636;"A";1;0;NA;"A";"black";"red";"magnit";7;300;"Windows 10";"Chrome 83.0.4103.116";"1366x657";0;1;1;0
"5eba67eb17a5461ab1182c5a";"BRAC2_horiAA_1st300";0;90;1059,21499989927;"L";1;0;NA;"L";"black";"red";"magnit";2;300;"Windows 10";"Chrome 83.0.4103.116";"1366x657";0;1;0;0
"5eba67eb17a5461ab1182c5a";"BRAC2_horiAA_1st300";0;91;654,635000042617;"L";1;0;NA;"L";"black";"blue";"parity";4;300;"Windows 10";"Chrome 83.0.4103.116";"1366x657";1;0;1;0
"5eba67eb17a5461ab1182c5a";"BRAC2_horiAA_1st300";0;92;1062,32999986969;"A";1;0;NA;"A";"black";"red";"magnit";8;300;"Windows 10";"Chrome 83.0.4103.116";"1366x657";1;1;1;0
"5eba67eb17a5461ab1182c5a";"BRAC2_horiAA_1st300";0;93;837,479999987409;"L";1;0;NA;"L";"black";"red";"magnit";4;300;"Windows 10";"Chrome 83.0.4103.116";"1366x657";0;1;0;0
"5eba67eb17a5461ab1182c5a";"BRAC2_horiAA_1st300";0;94;479,025000007823;"A";1;0;NA;"A";"black";"red";"parity";1;300;"Windows 10";"Chrome 83.0.4103.116";"1366x657";1;1;0;0
"5eba67eb17a5461ab1182c5a";"BRAC2_horiAA_1st300";0;95;1343,5349999927;"L";1;1;NA;"A";"black";"blue";"magnit";6;300;"Windows 10";"Chrome 83.0.4103.116";"1366x657";1;0;1;0
"5eba67eb17a5461ab1182c5a";"BRAC2_horiAA_1st300";1;0;1398,04000011645;"L";1;0;NA;"L";"black";"blue";"parity";2;0;"Windows 10";"Chrome 83.0.4103.116";"1366x657";99;99;99;99
"5eba67eb17a5461ab1182c5a";"BRAC2_horiAA_1st300";1;1;2179,31000003591;"L";1;0;NA;"L";"black";"blue";"magnit";1;0;"Windows 10";"Chrome 83.0.4103.116";"1366x657";1;0;0;0
"5eba67eb17a5461ab1182c5a";"BRAC2_horiAA_1st300";1;2;737,420000135899;"A";1;0;NA;"A";"black";"blue";"magnit";9;0;"Windows 10";"Chrome 83.0.4103.116";"1366x657";0;1;0;0
"5eba67eb17a5461ab1182c5a";"BRAC2_horiAA_1st300";1;3;602,335000177845;"L";1;0;NA;"L";"black";"red";"parity";2;0;"Windows 10";"Chrome 83.0.4103.116";"1366x657";1;1;1;0
"5eba67eb17a5461ab1182c5a";"BRAC2_horiAA_1st300";1;4;481,894999975339;"A";1;0;NA;"A";"black";"blue";"parity";1;0;"Windows 10";"Chrome 83.0.4103.116";"1366x657";0;1;1;0
"5eba67eb17a5461ab1182c5a";"BRAC2_horiAA_1st300";1;5;597,585000097752;"A";1;0;NA;"A";"black";"blue";"parity";9;0;"Windows 10";"Chrome 83.0.4103.116";"1366x657";0;0;0;0
"5eba67eb17a5461ab1182c5a";"BRAC2_horiAA_1st300";1;6;1140,46500017866;"L";1;0;NA;"L";"black";"red";"magnit";2;0;"Windows 10";"Chrome 83.0.4103.116";"1366x657";1;1;1;0
"5eba67eb17a5461ab1182c5a";"BRAC2_horiAA_1st300";1;7;913,940000114962;"L";1;0;NA;"L";"black";"blue";"magnit";4;0;"Windows 10";"Chrome 83.0.4103.116";"1366x657";0;0;1;0
"5eba67eb17a5461ab1182c5a";"BRAC2_horiAA_1st300";1;8;850,364999845624;"A";1;0;NA;"A";"black";"red";"magnit";9;0;"Windows 10";"Chrome 83.0.4103.116";"1366x657";0;1;1;0
"5eba67eb17a5461ab1182c5a";"BRAC2_horiAA_1st300";1;9;1074,6250001248;"A";1;0;NA;"A";"black";"blue";"magnit";6;0;"Windows 10";"Chrome 83.0.4103.116";"1366x657";0;0;1;0
"5eba67eb17a5461ab1182c5a";"BRAC2_horiAA_1st300";1;10;657,200000016019;"A";1;0;NA;"A";"black";"red";"magnit";7;0;"Windows 10";"Chrome 83.0.4103.116";"1366x657";0;0;1;0
"5eba67eb17a5461ab1182c5a";"BRAC2_horiAA_1st300";1;11;1077,23499997519;"L";1;0;NA;"L";"black";"red";"parity";4;0;"Windows 10";"Chrome 83.0.4103.116";"1366x657";1;1;0;0
"5eba67eb17a5461ab1182c5a";"BRAC2_horiAA_1st300";1;12;427,949999924749;"L";1;0;NA;"L";"black";"blue";"parity";8;0;"Windows 10";"Chrome 83.0.4103.116";"1366x657";0;0;1;0
"5eba67eb17a5461ab1182c5a";"BRAC2_horiAA_1st300";1;13;636,785000097007;"A";1;0;NA;"A";"black";"red";"magnit";7;0;"Windows 10";"Chrome 83.0.4103.116";"1366x657";1;1;1;0
"5eba67eb17a5461ab1182c5a";"BRAC2_horiAA_1st300";1;14;570,24999987334;"L";1;0;NA;"L";"black";"blue";"parity";6;0;"Windows 10";"Chrome 83.0.4103.116";"1366x657";1;1;1;0
"5eba67eb17a5461ab1182c5a";"BRAC2_horiAA_1st300";1;15;765,235000057146;"A";1;0;NA;"A";"black";"red";"magnit";7;0;"Windows 10";"Chrome 83.0.4103.116";"1366x657";1;1;1;0
"5eba67eb17a5461ab1182c5a";"BRAC2_horiAA_1st300";1;16;619,859999977052;"L";1;0;NA;"L";"black";"red";"magnit";3;0;"Windows 10";"Chrome 83.0.4103.116";"1366x657";0;1;0;0
"5eba67eb17a5461ab1182c5a";"BRAC2_horiAA_1st300";1;17;446,839999873191;"L";1;0;NA;"L";"black";"red";"parity";6;0;"Windows 10";"Chrome 83.0.4103.116";"1366x657";1;0;0;0
"5eba67eb17a5461ab1182c5a";"BRAC2_horiAA_1st300";1;18;516,029999824241;"A";1;0;NA;"A";"black";"blue";"parity";9;0;"Windows 10";"Chrome 83.0.4103.116";"1366x657";0;1;1;0
"5eba67eb17a5461ab1182c5a";"BRAC2_horiAA_1st300";1;19;706,424999982119;"L";1;0;NA;"L";"black";"red";"parity";2;0;"Windows 10";"Chrome 83.0.4103.116";"1366x657";0;1;1;0
"5eba67eb17a5461ab1182c5a";"BRAC2_horiAA_1st300";1;20;715,580000076443;"L";1;0;NA;"L";"black";"blue";"parity";6;0;"Windows 10";"Chrome 83.0.4103.116";"1366x657";0;0;1;0
"5eba67eb17a5461ab1182c5a";"BRAC2_horiAA_1st300";1;21;730,414999881759;"L";1;0;NA;"L";"black";"blue";"magnit";3;0;"Windows 10";"Chrome 83.0.4103.116";"1366x657";1;0;0;0
"5eba67eb17a5461ab1182c5a";"BRAC2_horiAA_1st300";1;22;499,420000007376;"L";1;0;NA;"L";"black";"red";"parity";4;0;"Windows 10";"Chrome 83.0.4103.116";"1366x657";1;0;1;0
"5eba67eb17a5461ab1182c5a";"BRAC2_horiAA_1st300";1;23;1037,63499995694;"A";1;0;NA;"A";"black";"red";"magnit";6;0;"Windows 10";"Chrome 83.0.4103.116";"1366x657";1;1;0;0
"5eba67eb17a5461ab1182c5a";"BRAC2_horiAA_1st300";1;24;448,2349997852;"L";1;1;NA;"A";"black";"red";"parity";9;0;"Windows 10";"Chrome 83.0.4103.116";"1366x657";1;0;0;0
"5eba67eb17a5461ab1182c5a";"BRAC2_horiAA_1st300";1;25;1945,67000004463;"A";1;0;NA;"A";"black";"blue";"parity";7;0;"Windows 10";"Chrome 83.0.4103.116";"1366x657";0;0;1;1
"5eba67eb17a5461ab1182c5a";"BRAC2_horiAA_1st300";1;26;597,81499998644;"L";1;0;NA;"L";"black";"blue";"parity";2;0;"Windows 10";"Chrome 83.0.4103.116";"1366x657";0;1;0;0
"5eba67eb17a5461ab1182c5a";"BRAC2_horiAA_1st300";1;27;833,675000118092;"A";1;0;NA;"A";"black";"red";"magnit";8;0;"Windows 10";"Chrome 83.0.4103.116";"1366x657";1;1;1;0
"5eba67eb17a5461ab1182c5a";"BRAC2_horiAA_1st300";1;28;1684,18499990366;"L";1;0;NA;"L";"black";"blue";"parity";6;0;"Windows 10";"Chrome 83.0.4103.116";"1366x657";1;1;1;0
"5eba67eb17a5461ab1182c5a";"BRAC2_horiAA_1st300";1;29;1321,14499993622;"A";1;0;NA;"A";"black";"red";"parity";7;0;"Windows 10";"Chrome 83.0.4103.116";"1366x657";0;1;1;0
"5eba67eb17a5461ab1182c5a";"BRAC2_horiAA_1st300";1;30;1815,10999985039;"A";1;0;NA;"A";"black";"red";"magnit";6;0;"Windows 10";"Chrome 83.0.4103.116";"1366x657";1;0;0;0
"5eba67eb17a5461ab1182c5a";"BRAC2_horiAA_1st300";1;31;672,994999913499;"A";1;0;NA;"A";"black";"blue";"parity";7;0;"Windows 10";"Chrome 83.0.4103.116";"1366x657";1;0;1;0
"5eba67eb17a5461ab1182c5a";"BRAC2_horiAA_1st300";1;32;571,675000013784;"L";1;0;NA;"L";"black";"blue";"magnit";2;0;"Windows 10";"Chrome 83.0.4103.116";"1366x657";1;1;0;0
"5eba67eb17a5461ab1182c5a";"BRAC2_horiAA_1st300";1;33;404,624999966472;"L";1;0;NA;"L";"black";"red";"parity";8;0;"Windows 10";"Chrome 83.0.4103.116";"1366x657";1;0;1;0
"5eba67eb17a5461ab1182c5a";"BRAC2_horiAA_1st300";1;34;636,56000001356;"A";1;0;NA;"A";"black";"blue";"magnit";6;0;"Windows 10";"Chrome 83.0.4103.116";"1366x657";1;1;1;0
"5eba67eb17a5461ab1182c5a";"BRAC2_horiAA_1st300";1;35;476,705000037327;"A";1;0;NA;"A";"black";"blue";"parity";9;0;"Windows 10";"Chrome 83.0.4103.116";"1366x657";1;0;0;0
"5eba67eb17a5461ab1182c5a";"BRAC2_horiAA_1st300";1;36;642,569999909028;"L";1;0;NA;"L";"black";"red";"parity";6;0;"Windows 10";"Chrome 83.0.4103.116";"1366x657";0;1;1;0
"5eba67eb17a5461ab1182c5a";"BRAC2_horiAA_1st300";1;37;432,044999906793;"L";1;0;NA;"L";"black";"blue";"parity";4;0;"Windows 10";"Chrome 83.0.4103.116";"1366x657";0;0;1;0
"5eba67eb17a5461ab1182c5a";"BRAC2_horiAA_1st300";1;38;700,350000057369;"A";1;0;NA;"A";"black";"red";"magnit";6;0;"Windows 10";"Chrome 83.0.4103.116";"1366x657";1;1;1;0
"5eba67eb17a5461ab1182c5a";"BRAC2_horiAA_1st300";1;39;492,670000065118;"A";1;0;NA;"A";"black";"blue";"magnit";8;0;"Windows 10";"Chrome 83.0.4103.116";"1366x657";0;0;1;0
"5eba67eb17a5461ab1182c5a";"BRAC2_horiAA_1st300";1;40;714,139999821782;"L";1;0;NA;"L";"black";"blue";"magnit";1;0;"Windows 10";"Chrome 83.0.4103.116";"1366x657";0;1;0;0
"5eba67eb17a5461ab1182c5a";"BRAC2_horiAA_1st300";1;41;672,23499994725;"A";1;0;NA;"A";"black";"red";"parity";9;0;"Windows 10";"Chrome 83.0.4103.116";"1366x657";1;1;1;0
"5eba67eb17a5461ab1182c5a";"BRAC2_horiAA_1st300";1;42;509,134999942034;"A";1;0;NA;"A";"black";"blue";"parity";3;0;"Windows 10";"Chrome 83.0.4103.116";"1366x657";0;0;1;0
"5eba67eb17a5461ab1182c5a";"BRAC2_horiAA_1st300";1;43;639,759999932721;"A";1;0;NA;"A";"black";"blue";"magnit";8;0;"Windows 10";"Chrome 83.0.4103.116";"1366x657";1;0;0;0
"5eba67eb17a5461ab1182c5a";"BRAC2_horiAA_1st300";1;44;403,445000061765;"L";1;0;NA;"L";"black";"blue";"magnit";3;0;"Windows 10";"Chrome 83.0.4103.116";"1366x657";0;1;0;0
"5eba67eb17a5461ab1182c5a";"BRAC2_horiAA_1st300";1;45;723,770000040531;"L";1;0;NA;"L";"black";"blue";"parity";4;0;"Windows 10";"Chrome 83.0.4103.116";"1366x657";1;0;0;0
"5eba67eb17a5461ab1182c5a";"BRAC2_horiAA_1st300";1;46;639,620000030845;"A";1;0;NA;"A";"black";"blue";"parity";1;0;"Windows 10";"Chrome 83.0.4103.116";"1366x657";0;1;0;0
"5eba67eb17a5461ab1182c5a";"BRAC2_horiAA_1st300";1;47;725,310000125319;"A";1;0;NA;"A";"black";"blue";"magnit";7;0;"Windows 10";"Chrome 83.0.4103.116";"1366x657";1;0;0;0
"5eba67eb17a5461ab1182c5a";"BRAC2_horiAA_1st300";1;48;2127,87500000559;"L";1;0;NA;"L";"black";"red";"magnit";4;0;"Windows 10";"Chrome 83.0.4103.116";"1366x657";0;1;1;0
"5eba67eb17a5461ab1182c5a";"BRAC2_horiAA_1st300";1;49;822,42999994196;"L";1;0;NA;"L";"black";"red";"magnit";1;0;"Windows 10";"Chrome 83.0.4103.116";"1366x657";0;0;0;0
"5eba67eb17a5461ab1182c5a";"BRAC2_horiAA_1st300";1;50;555,599999846891;"A";1;0;NA;"A";"black";"blue";"parity";3;0;"Windows 10";"Chrome 83.0.4103.116";"1366x657";1;1;1;0
"5eba67eb17a5461ab1182c5a";"BRAC2_horiAA_1st300";1;51;1206,03000000119;"L";1;0;NA;"L";"black";"red";"parity";8;0;"Windows 10";"Chrome 83.0.4103.116";"1366x657";0;1;1;0
"5eba67eb17a5461ab1182c5a";"BRAC2_horiAA_1st300";1;52;513,489999808371;"A";1;0;NA;"A";"black";"red";"parity";7;0;"Windows 10";"Chrome 83.0.4103.116";"1366x657";0;1;0;0
"5eba67eb17a5461ab1182c5a";"BRAC2_horiAA_1st300";1;53;413,229999830946;"A";1;0;NA;"A";"black";"blue";"parity";3;0;"Windows 10";"Chrome 83.0.4103.116";"1366x657";0;0;1;0
"5eba67eb17a5461ab1182c5a";"BRAC2_horiAA_1st300";1;54;639,669999945909;"A";1;0;NA;"A";"black";"blue";"magnit";8;0;"Windows 10";"Chrome 83.0.4103.116";"1366x657";1;0;0;0
"5eba67eb17a5461ab1182c5a";"BRAC2_horiAA_1st300";1;55;636,789999902248;"L";1;0;NA;"L";"black";"red";"magnit";4;0;"Windows 10";"Chrome 83.0.4103.116";"1366x657";0;1;1;0
"5eba67eb17a5461ab1182c5a";"BRAC2_horiAA_1st300";1;56;420,380000025034;"L";1;0;NA;"L";"black";"blue";"magnit";3;0;"Windows 10";"Chrome 83.0.4103.116";"1366x657";0;0;1;0
"5eba67eb17a5461ab1182c5a";"BRAC2_horiAA_1st300";1;57;578,735000221059;"L";1;0;NA;"L";"black";"red";"parity";2;0;"Windows 10";"Chrome 83.0.4103.116";"1366x657";1;0;1;0
"5eba67eb17a5461ab1182c5a";"BRAC2_horiAA_1st300";1;58;496,65499990806;"A";1;0;NA;"A";"black";"red";"parity";3;0;"Windows 10";"Chrome 83.0.4103.116";"1366x657";0;1;0;0
"5eba67eb17a5461ab1182c5a";"BRAC2_horiAA_1st300";1;59;447,135000023991;"A";1;1;NA;"L";"black";"blue";"magnit";2;0;"Windows 10";"Chrome 83.0.4103.116";"1366x657";1;1;1;0
"5eba67eb17a5461ab1182c5a";"BRAC2_horiAA_1st300";1;60;589,700000127777;"A";1;0;NA;"A";"black";"blue";"magnit";9;0;"Windows 10";"Chrome 83.0.4103.116";"1366x657";0;1;0;1
"5eba67eb17a5461ab1182c5a";"BRAC2_horiAA_1st300";1;61;648,144999984652;"L";1;0;NA;"L";"black";"red";"magnit";3;0;"Windows 10";"Chrome 83.0.4103.116";"1366x657";0;1;1;0
"5eba67eb17a5461ab1182c5a";"BRAC2_horiAA_1st300";1;62;714,230000041425;"L";1;0;NA;"L";"black";"blue";"magnit";4;0;"Windows 10";"Chrome 83.0.4103.116";"1366x657";0;0;1;0
"5eba67eb17a5461ab1182c5a";"BRAC2_horiAA_1st300";1;63;439,840000122786;"A";1;0;NA;"A";"black";"red";"magnit";8;0;"Windows 10";"Chrome 83.0.4103.116";"1366x657";0;1;1;0
"5eba67eb17a5461ab1182c5a";"BRAC2_horiAA_1st300";1;64;442,329999990761;"L";1;0;NA;"L";"black";"blue";"parity";2;0;"Windows 10";"Chrome 83.0.4103.116";"1366x657";1;1;1;0
"5eba67eb17a5461ab1182c5a";"BRAC2_horiAA_1st300";1;65;635,129999835044;"L";1;0;NA;"L";"black";"red";"magnit";3;0;"Windows 10";"Chrome 83.0.4103.116";"1366x657";1;0;1;0
"5eba67eb17a5461ab1182c5a";"BRAC2_horiAA_1st300";1;66;464,954999973997;"L";1;1;NA;"A";"black";"blue";"parity";1;0;"Windows 10";"Chrome 83.0.4103.116";"1366x657";1;1;1;0
"5eba67eb17a5461ab1182c5a";"BRAC2_horiAA_1st300";1;67;1228,67499990389;"L";1;0;NA;"L";"black";"red";"magnit";2;0;"Windows 10";"Chrome 83.0.4103.116";"1366x657";1;1;1;1
"5eba67eb17a5461ab1182c5a";"BRAC2_horiAA_1st300";1;68;1008,72000004165;"A";1;0;NA;"A";"black";"blue";"magnit";7;0;"Windows 10";"Chrome 83.0.4103.116";"1366x657";0;1;1;0
"5eba67eb17a5461ab1182c5a";"BRAC2_horiAA_1st300";1;69;480,660000117496;"L";1;0;NA;"L";"black";"red";"magnit";2;0;"Windows 10";"Chrome 83.0.4103.116";"1366x657";0;1;1;0
"5eba67eb17a5461ab1182c5a";"BRAC2_horiAA_1st300";1;70;782,384999794886;"A";1;0;NA;"A";"black";"red";"parity";1;0;"Windows 10";"Chrome 83.0.4103.116";"1366x657";1;1;0;0
"5eba67eb17a5461ab1182c5a";"BRAC2_horiAA_1st300";1;71;1101,50000010617;"A";1;0;NA;"A";"black";"blue";"magnit";6;0;"Windows 10";"Chrome 83.0.4103.116";"1366x657";1;0;1;0
"5eba67eb17a5461ab1182c5a";"BRAC2_horiAA_1st300";1;72;1382,94499996118;"L";1;0;NA;"L";"black";"blue";"parity";8;0;"Windows 10";"Chrome 83.0.4103.116";"1366x657";1;1;0;0
"5eba67eb17a5461ab1182c5a";"BRAC2_horiAA_1st300";1;73;756,724999984726;"A";1;0;NA;"A";"black";"red";"parity";3;0;"Windows 10";"Chrome 83.0.4103.116";"1366x657";0;1;1;0
"5eba67eb17a5461ab1182c5a";"BRAC2_horiAA_1st300";1;74;814,354999922216;"A";1;0;NA;"A";"black";"red";"magnit";8;0;"Windows 10";"Chrome 83.0.4103.116";"1366x657";1;0;0;0
"5eba67eb17a5461ab1182c5a";"BRAC2_horiAA_1st300";1;75;582,984999986365;"A";1;0;NA;"A";"black";"blue";"parity";7;0;"Windows 10";"Chrome 83.0.4103.116";"1366x657";1;0;1;0
"5eba67eb17a5461ab1182c5a";"BRAC2_horiAA_1st300";1;76;446,220000041649;"A";1;1;NA;"L";"black";"red";"parity";4;0;"Windows 10";"Chrome 83.0.4103.116";"1366x657";0;1;1;0
"5eba67eb17a5461ab1182c5a";"BRAC2_horiAA_1st300";1;77;513,2750000339;"A";1;0;NA;"A";"black";"red";"parity";1;0;"Windows 10";"Chrome 83.0.4103.116";"1366x657";0;1;0;1
"5eba67eb17a5461ab1182c5a";"BRAC2_horiAA_1st300";1;78;500,454999972135;"L";1;0;NA;"L";"black";"red";"parity";8;0;"Windows 10";"Chrome 83.0.4103.116";"1366x657";0;1;0;0
"5eba67eb17a5461ab1182c5a";"BRAC2_horiAA_1st300";1;79;529,184999875724;"A";1;0;NA;"A";"black";"red";"parity";1;0;"Windows 10";"Chrome 83.0.4103.116";"1366x657";0;1;0;0
"5eba67eb17a5461ab1182c5a";"BRAC2_horiAA_1st300";1;80;743,49999986589;"A";1;0;NA;"A";"black";"red";"parity";9;0;"Windows 10";"Chrome 83.0.4103.116";"1366x657";0;0;0;0
"5eba67eb17a5461ab1182c5a";"BRAC2_horiAA_1st300";1;81;538,590000011027;"L";1;0;NA;"L";"black";"blue";"magnit";2;0;"Windows 10";"Chrome 83.0.4103.116";"1366x657";1;1;1;0
"5eba67eb17a5461ab1182c5a";"BRAC2_horiAA_1st300";1;82;456,29999996163;"A";1;0;NA;"A";"black";"blue";"magnit";7;0;"Windows 10";"Chrome 83.0.4103.116";"1366x657";0;1;0;0
"5eba67eb17a5461ab1182c5a";"BRAC2_horiAA_1st300";1;83;852,619999786839;"L";1;0;NA;"L";"black";"red";"magnit";1;0;"Windows 10";"Chrome 83.0.4103.116";"1366x657";0;1;1;0
"5eba67eb17a5461ab1182c5a";"BRAC2_horiAA_1st300";1;84;1006,20000017807;"A";1;0;NA;"A";"black";"red";"parity";3;0;"Windows 10";"Chrome 83.0.4103.116";"1366x657";1;1;0;0
"5eba67eb17a5461ab1182c5a";"BRAC2_horiAA_1st300";1;85;1472,09999989718;"L";1;0;NA;"L";"black";"red";"magnit";1;0;"Windows 10";"Chrome 83.0.4103.116";"1366x657";1;1;0;0
"5eba67eb17a5461ab1182c5a";"BRAC2_horiAA_1st300";1;86;860,074999975041;"L";1;0;NA;"L";"black";"red";"parity";6;0;"Windows 10";"Chrome 83.0.4103.116";"1366x657";1;0;0;0
"5eba67eb17a5461ab1182c5a";"BRAC2_horiAA_1st300";1;87;1226,83000005782;"L";1;0;NA;"L";"black";"blue";"magnit";1;0;"Windows 10";"Chrome 83.0.4103.116";"1366x657";1;0;1;0
"5eba67eb17a5461ab1182c5a";"BRAC2_horiAA_1st300";1;88;575,590000022203;"L";1;0;NA;"L";"black";"blue";"magnit";4;0;"Windows 10";"Chrome 83.0.4103.116";"1366x657";0;0;0;0
"5eba67eb17a5461ab1182c5a";"BRAC2_horiAA_1st300";1;89;454,110000049695;"A";1;0;NA;"A";"black";"blue";"magnit";9;0;"Windows 10";"Chrome 83.0.4103.116";"1366x657";0;1;0;0
"5eba67eb17a5461ab1182c5a";"BRAC2_horiAA_1st300";1;90;549,940000055358;"L";1;0;NA;"L";"black";"blue";"parity";8;0;"Windows 10";"Chrome 83.0.4103.116";"1366x657";1;1;0;0
"5eba67eb17a5461ab1182c5a";"BRAC2_horiAA_1st300";1;91;417,499999981374;"A";1;0;NA;"A";"black";"red";"parity";7;0;"Windows 10";"Chrome 83.0.4103.116";"1366x657";0;1;1;0
"5eba67eb17a5461ab1182c5a";"BRAC2_horiAA_1st300";1;92;967,050000093877;"A";1;0;NA;"A";"black";"red";"magnit";9;0;"Windows 10";"Chrome 83.0.4103.116";"1366x657";1;0;0;0
"5eba67eb17a5461ab1182c5a";"BRAC2_horiAA_1st300";1;93;610,749999992549;"L";1;0;NA;"L";"black";"blue";"parity";4;0;"Windows 10";"Chrome 83.0.4103.116";"1366x657";1;1;1;0
"5eba67eb17a5461ab1182c5a";"BRAC2_horiAA_1st300";1;94;962,824999820441;"A";1;0;NA;"A";"black";"red";"magnit";9;0;"Windows 10";"Chrome 83.0.4103.116";"1366x657";1;1;1;0
"5eba67eb17a5461ab1182c5a";"BRAC2_horiAA_1st300";1;95;550,314999883994;"L";1;0;NA;"L";"black";"red";"magnit";4;0;"Windows 10";"Chrome 83.0.4103.116";"1366x657";0;1;0;0
"5eba67eb17a5461ab1182c5a";"BRAC2_horiAA_1st300";2;0;1648,23499997146;"A";1;0;NA;"A";"black";"red";"magnit";8;300;"Windows 10";"Chrome 83.0.4103.116";"1366x657";99;99;99;99
"5eba67eb17a5461ab1182c5a";"BRAC2_horiAA_1st300";2;1;580,420000012964;"A";1;0;NA;"A";"black";"red";"parity";3;300;"Windows 10";"Chrome 83.0.4103.116";"1366x657";1;0;0;0
"5eba67eb17a5461ab1182c5a";"BRAC2_horiAA_1st300";2;2;618,619999848306;"A";1;0;NA;"A";"black";"blue";"parity";1;300;"Windows 10";"Chrome 83.0.4103.116";"1366x657";0;0;1;0
"5eba67eb17a5461ab1182c5a";"BRAC2_horiAA_1st300";2;3;486,55500006862;"L";1;1;NA;"A";"black";"blue";"magnit";8;300;"Windows 10";"Chrome 83.0.4103.116";"1366x657";1;0;0;0
"5eba67eb17a5461ab1182c5a";"BRAC2_horiAA_1st300";2;4;1327,18999986537;"L";1;0;NA;"L";"black";"blue";"magnit";1;300;"Windows 10";"Chrome 83.0.4103.116";"1366x657";0;1;0;1
"5eba67eb17a5461ab1182c5a";"BRAC2_horiAA_1st300";2;5;1038,20000006817;"L";1;0;NA;"L";"black";"blue";"magnit";3;300;"Windows 10";"Chrome 83.0.4103.116";"1366x657";0;0;0;0
"5eba67eb17a5461ab1182c5a";"BRAC2_horiAA_1st300";2;6;606,715000001714;"A";1;0;NA;"A";"black";"red";"parity";7;300;"Windows 10";"Chrome 83.0.4103.116";"1366x657";1;1;1;0
"5eba67eb17a5461ab1182c5a";"BRAC2_horiAA_1st300";2;7;582,155000185594;"L";1;0;NA;"L";"black";"red";"parity";6;300;"Windows 10";"Chrome 83.0.4103.116";"1366x657";0;1;0;0
"5eba67eb17a5461ab1182c5a";"BRAC2_horiAA_1st300";2;8;450,570000102744;"A";1;0;NA;"A";"black";"red";"parity";7;300;"Windows 10";"Chrome 83.0.4103.116";"1366x657";0;1;0;0
"5eba67eb17a5461ab1182c5a";"BRAC2_horiAA_1st300";2;9;430,505000054836;"L";1;0;NA;"L";"black";"red";"parity";6;300;"Windows 10";"Chrome 83.0.4103.116";"1366x657";0;1;0;0
"5eba67eb17a5461ab1182c5a";"BRAC2_horiAA_1st300";2;10;581,624999875203;"A";1;0;NA;"A";"black";"blue";"parity";3;300;"Windows 10";"Chrome 83.0.4103.116";"1366x657";0;1;1;0
"5eba67eb17a5461ab1182c5a";"BRAC2_horiAA_1st300";2;11;467,784999869764;"L";1;0;NA;"L";"black";"red";"parity";8;300;"Windows 10";"Chrome 83.0.4103.116";"1366x657";0;1;1;0
"5eba67eb17a5461ab1182c5a";"BRAC2_horiAA_1st300";2;12;576,869999989867;"A";1;0;NA;"A";"black";"red";"parity";9;300;"Windows 10";"Chrome 83.0.4103.116";"1366x657";0;1;0;0
"5eba67eb17a5461ab1182c5a";"BRAC2_horiAA_1st300";2;13;708,7350001093;"L";1;0;NA;"L";"black";"blue";"magnit";2;300;"Windows 10";"Chrome 83.0.4103.116";"1366x657";1;1;1;0
"5eba67eb17a5461ab1182c5a";"BRAC2_horiAA_1st300";2;14;434,200000017881;"A";1;0;NA;"A";"black";"blue";"magnit";7;300;"Windows 10";"Chrome 83.0.4103.116";"1366x657";0;1;0;0
"5eba67eb17a5461ab1182c5a";"BRAC2_horiAA_1st300";2;15;1346,60500008613;"A";1;0;NA;"A";"black";"red";"magnit";6;300;"Windows 10";"Chrome 83.0.4103.116";"1366x657";0;0;1;0
"5eba67eb17a5461ab1182c5a";"BRAC2_horiAA_1st300";2;16;697,110000066459;"A";1;0;NA;"A";"black";"red";"parity";9;300;"Windows 10";"Chrome 83.0.4103.116";"1366x657";1;0;0;0
"5eba67eb17a5461ab1182c5a";"BRAC2_horiAA_1st300";2;17;1180,68500002846;"L";1;0;NA;"L";"black";"red";"magnit";1;300;"Windows 10";"Chrome 83.0.4103.116";"1366x657";1;1;0;0
"5eba67eb17a5461ab1182c5a";"BRAC2_horiAA_1st300";2;18;1623,97999991663;"L";1;0;NA;"L";"black";"red";"magnit";4;300;"Windows 10";"Chrome 83.0.4103.116";"1366x657";0;0;0;0
"5eba67eb17a5461ab1182c5a";"BRAC2_horiAA_1st300";2;19;479,584999848157;"L";1;0;NA;"L";"black";"red";"parity";8;300;"Windows 10";"Chrome 83.0.4103.116";"1366x657";1;0;0;0
"5eba67eb17a5461ab1182c5a";"BRAC2_horiAA_1st300";2;20;966,449999948964;"L";1;0;NA;"L";"black";"blue";"magnit";4;300;"Windows 10";"Chrome 83.0.4103.116";"1366x657";1;0;1;0
"5eba67eb17a5461ab1182c5a";"BRAC2_horiAA_1st300";2;21;690,984999993816;"A";1;0;NA;"A";"black";"blue";"magnit";6;300;"Windows 10";"Chrome 83.0.4103.116";"1366x657";0;1;0;0
"5eba67eb17a5461ab1182c5a";"BRAC2_horiAA_1st300";2;22;1168,53500017896;"L";1;0;NA;"L";"black";"blue";"magnit";1;300;"Windows 10";"Chrome 83.0.4103.116";"1366x657";0;1;0;0
"5eba67eb17a5461ab1182c5a";"BRAC2_horiAA_1st300";2;23;544,929999858141;"L";1;0;NA;"L";"black";"red";"parity";4;300;"Windows 10";"Chrome 83.0.4103.116";"1366x657";1;0;1;0
"5eba67eb17a5461ab1182c5a";"BRAC2_horiAA_1st300";2;24;516,525000100955;"A";1;0;NA;"A";"black";"blue";"parity";7;300;"Windows 10";"Chrome 83.0.4103.116";"1366x657";0;1;1;0
"5eba67eb17a5461ab1182c5a";"BRAC2_horiAA_1st300";2;25;436,234999913722;"L";1;0;NA;"L";"black";"blue";"parity";4;300;"Windows 10";"Chrome 83.0.4103.116";"1366x657";0;1;0;0
"5eba67eb17a5461ab1182c5a";"BRAC2_horiAA_1st300";2;26;588,890000013635;"A";1;0;NA;"A";"black";"red";"parity";1;300;"Windows 10";"Chrome 83.0.4103.116";"1366x657";0;1;1;0
"5eba67eb17a5461ab1182c5a";"BRAC2_horiAA_1st300";2;27;797,484999988228;"L";1;0;NA;"L";"black";"blue";"magnit";3;300;"Windows 10";"Chrome 83.0.4103.116";"1366x657";1;1;1;0
"5eba67eb17a5461ab1182c5a";"BRAC2_horiAA_1st300";2;28;497,990000061691;"A";1;0;NA;"A";"black";"red";"magnit";8;300;"Windows 10";"Chrome 83.0.4103.116";"1366x657";0;1;1;0
"5eba67eb17a5461ab1182c5a";"BRAC2_horiAA_1st300";2;29;1009,18000005186;"A";1;0;NA;"A";"black";"blue";"parity";7;300;"Windows 10";"Chrome 83.0.4103.116";"1366x657";1;0;1;0
"5eba67eb17a5461ab1182c5a";"BRAC2_horiAA_1st300";2;30;711,5099998191;"A";1;0;NA;"A";"black";"red";"magnit";9;300;"Windows 10";"Chrome 83.0.4103.116";"1366x657";1;0;1;0
"5eba67eb17a5461ab1182c5a";"BRAC2_horiAA_1st300";2;31;549,185000127181;"A";1;0;NA;"A";"black";"blue";"magnit";7;300;"Windows 10";"Chrome 83.0.4103.116";"1366x657";0;0;1;0
"5eba67eb17a5461ab1182c5a";"BRAC2_horiAA_1st300";2;32;851,729999994859;"L";1;1;NA;"A";"black";"blue";"parity";3;300;"Windows 10";"Chrome 83.0.4103.116";"1366x657";1;0;0;0
"5eba67eb17a5461ab1182c5a";"BRAC2_horiAA_1st300";2;33;1159,47999991477;"L";1;0;NA;"L";"black";"red";"magnit";1;300;"Windows 10";"Chrome 83.0.4103.116";"1366x657";1;1;1;1
"5eba67eb17a5461ab1182c5a";"BRAC2_horiAA_1st300";2;34;899,620000040159;"L";1;0;NA;"L";"black";"blue";"parity";2;300;"Windows 10";"Chrome 83.0.4103.116";"1366x657";1;0;1;0
"5eba67eb17a5461ab1182c5a";"BRAC2_horiAA_1st300";2;35;633,094999939203;"A";1;0;NA;"A";"black";"red";"magnit";6;300;"Windows 10";"Chrome 83.0.4103.116";"1366x657";1;1;1;0
"5eba67eb17a5461ab1182c5a";"BRAC2_horiAA_1st300";2;36;456,065000034869;"A";1;0;NA;"A";"black";"blue";"magnit";9;300;"Windows 10";"Chrome 83.0.4103.116";"1366x657";0;0;1;0
"5eba67eb17a5461ab1182c5a";"BRAC2_horiAA_1st300";2;37;952,689999947324;"A";1;0;NA;"A";"black";"red";"magnit";7;300;"Windows 10";"Chrome 83.0.4103.116";"1366x657";0;0;1;0
"5eba67eb17a5461ab1182c5a";"BRAC2_horiAA_1st300";2;38;525,249999947846;"L";1;0;NA;"L";"black";"red";"parity";2;300;"Windows 10";"Chrome 83.0.4103.116";"1366x657";1;1;0;0
"5eba67eb17a5461ab1182c5a";"BRAC2_horiAA_1st300";2;39;864,275000058115;"A";1;0;NA;"A";"black";"blue";"magnit";8;300;"Windows 10";"Chrome 83.0.4103.116";"1366x657";1;1;1;0
"5eba67eb17a5461ab1182c5a";"BRAC2_horiAA_1st300";2;40;450,960000045598;"L";1;0;NA;"L";"black";"blue";"parity";4;300;"Windows 10";"Chrome 83.0.4103.116";"1366x657";1;1;0;0
"5eba67eb17a5461ab1182c5a";"BRAC2_horiAA_1st300";2;41;1150,15000011772;"L";1;0;NA;"L";"black";"red";"magnit";2;300;"Windows 10";"Chrome 83.0.4103.116";"1366x657";1;0;1;0
"5eba67eb17a5461ab1182c5a";"BRAC2_horiAA_1st300";2;42;1641,56499993987;"L";1;0;NA;"L";"black";"red";"parity";4;300;"Windows 10";"Chrome 83.0.4103.116";"1366x657";1;0;0;0
"5eba67eb17a5461ab1182c5a";"BRAC2_horiAA_1st300";2;43;762,265000026673;"L";1;0;NA;"L";"black";"red";"magnit";3;300;"Windows 10";"Chrome 83.0.4103.116";"1366x657";1;0;0;0
"5eba67eb17a5461ab1182c5a";"BRAC2_horiAA_1st300";2;44;532,14000002481;"A";1;0;NA;"A";"black";"blue";"parity";1;300;"Windows 10";"Chrome 83.0.4103.116";"1366x657";1;1;1;0
"5eba67eb17a5461ab1182c5a";"BRAC2_horiAA_1st300";2;45;929,005000041798;"L";1;0;NA;"L";"black";"blue";"magnit";3;300;"Windows 10";"Chrome 83.0.4103.116";"1366x657";1;1;0;0
"5eba67eb17a5461ab1182c5a";"BRAC2_horiAA_1st300";2;46;1067,45500001125;"A";1;0;NA;"A";"black";"blue";"parity";7;300;"Windows 10";"Chrome 83.0.4103.116";"1366x657";1;1;0;0
"5eba67eb17a5461ab1182c5a";"BRAC2_horiAA_1st300";2;47;372,250000014901;"A";1;0;NA;"A";"black";"blue";"parity";9;300;"Windows 10";"Chrome 83.0.4103.116";"1366x657";0;0;0;0
"5eba67eb17a5461ab1182c5a";"BRAC2_horiAA_1st300";2;48;597,219999879599;"L";1;0;NA;"L";"black";"blue";"magnit";2;300;"Windows 10";"Chrome 83.0.4103.116";"1366x657";1;1;0;0
"5eba67eb17a5461ab1182c5a";"BRAC2_horiAA_1st300";2;49;870,415000012144;"L";1;0;NA;"L";"black";"red";"magnit";3;300;"Windows 10";"Chrome 83.0.4103.116";"1366x657";0;0;1;0
"5eba67eb17a5461ab1182c5a";"BRAC2_horiAA_1st300";2;50;405,230000149459;"L";1;0;NA;"L";"black";"blue";"magnit";2;300;"Windows 10";"Chrome 83.0.4103.116";"1366x657";0;0;1;0
"5eba67eb17a5461ab1182c5a";"BRAC2_horiAA_1st300";2;51;448,989999946207;"L";1;0;NA;"L";"black";"red";"magnit";1;300;"Windows 10";"Chrome 83.0.4103.116";"1366x657";0;0;1;0
"5eba67eb17a5461ab1182c5a";"BRAC2_horiAA_1st300";2;52;627,369999885559;"L";1;0;NA;"L";"black";"red";"parity";2;300;"Windows 10";"Chrome 83.0.4103.116";"1366x657";1;0;0;0
"5eba67eb17a5461ab1182c5a";"BRAC2_horiAA_1st300";2;53;445,82000002265;"A";1;0;NA;"A";"black";"red";"parity";3;300;"Windows 10";"Chrome 83.0.4103.116";"1366x657";0;1;0;0
"5eba67eb17a5461ab1182c5a";"BRAC2_horiAA_1st300";2;54;997,299999929965;"L";1;0;NA;"L";"black";"blue";"parity";6;300;"Windows 10";"Chrome 83.0.4103.116";"1366x657";0;1;1;0
"5eba67eb17a5461ab1182c5a";"BRAC2_horiAA_1st300";2;55;432,770000072196;"A";1;0;NA;"A";"black";"red";"parity";3;300;"Windows 10";"Chrome 83.0.4103.116";"1366x657";0;1;1;0
"5eba67eb17a5461ab1182c5a";"BRAC2_horiAA_1st300";2;56;715,014999965206;"A";1;0;NA;"A";"black";"red";"magnit";9;300;"Windows 10";"Chrome 83.0.4103.116";"1366x657";1;0;0;0
"5eba67eb17a5461ab1182c5a";"BRAC2_horiAA_1st300";2;57;607,494999887422;"A";1;0;NA;"A";"black";"blue";"magnit";6;300;"Windows 10";"Chrome 83.0.4103.116";"1366x657";0;0;1;0
"5eba67eb17a5461ab1182c5a";"BRAC2_horiAA_1st300";2;58;592,999999877065;"A";1;0;NA;"A";"black";"blue";"parity";9;300;"Windows 10";"Chrome 83.0.4103.116";"1366x657";1;0;0;0
"5eba67eb17a5461ab1182c5a";"BRAC2_horiAA_1st300";2;59;480,779999867082;"L";1;0;NA;"L";"black";"blue";"parity";6;300;"Windows 10";"Chrome 83.0.4103.116";"1366x657";0;1;0;0
"5eba67eb17a5461ab1182c5a";"BRAC2_horiAA_1st300";2;60;535,015000030398;"A";1;0;NA;"A";"black";"blue";"magnit";7;300;"Windows 10";"Chrome 83.0.4103.116";"1366x657";1;1;0;0
"5eba67eb17a5461ab1182c5a";"BRAC2_horiAA_1st300";2;61;478,754999814555;"A";1;0;NA;"A";"black";"red";"magnit";6;300;"Windows 10";"Chrome 83.0.4103.116";"1366x657";0;0;1;0
"5eba67eb17a5461ab1182c5a";"BRAC2_horiAA_1st300";2;62;569,505000021309;"L";1;0;NA;"L";"black";"blue";"parity";8;300;"Windows 10";"Chrome 83.0.4103.116";"1366x657";1;1;1;0
"5eba67eb17a5461ab1182c5a";"BRAC2_horiAA_1st300";2;63;1062,35500006005;"L";1;0;NA;"L";"black";"blue";"magnit";1;300;"Windows 10";"Chrome 83.0.4103.116";"1366x657";1;0;0;0
"5eba67eb17a5461ab1182c5a";"BRAC2_horiAA_1st300";2;64;1292,78999986127;"L";1;0;NA;"L";"black";"red";"parity";6;300;"Windows 10";"Chrome 83.0.4103.116";"1366x657";1;0;1;0
"5eba67eb17a5461ab1182c5a";"BRAC2_horiAA_1st300";2;65;565,664999885485;"L";1;0;NA;"L";"black";"red";"magnit";4;300;"Windows 10";"Chrome 83.0.4103.116";"1366x657";1;0;0;0
"5eba67eb17a5461ab1182c5a";"BRAC2_horiAA_1st300";2;66;414,089999860153;"L";1;0;NA;"L";"black";"red";"magnit";2;300;"Windows 10";"Chrome 83.0.4103.116";"1366x657";0;0;0;0
"5eba67eb17a5461ab1182c5a";"BRAC2_horiAA_1st300";2;67;519,409999949858;"A";1;0;NA;"A";"black";"red";"magnit";9;300;"Windows 10";"Chrome 83.0.4103.116";"1366x657";0;1;0;0
"5eba67eb17a5461ab1182c5a";"BRAC2_horiAA_1st300";2;68;419,359999941662;"A";1;0;NA;"A";"black";"red";"magnit";7;300;"Windows 10";"Chrome 83.0.4103.116";"1366x657";0;0;0;0
"5eba67eb17a5461ab1182c5a";"BRAC2_horiAA_1st300";2;69;430,154999950901;"L";1;0;NA;"L";"black";"blue";"magnit";4;300;"Windows 10";"Chrome 83.0.4103.116";"1366x657";0;1;1;0
"5eba67eb17a5461ab1182c5a";"BRAC2_horiAA_1st300";2;70;800,895000109449;"L";1;1;NA;"A";"black";"blue";"parity";1;300;"Windows 10";"Chrome 83.0.4103.116";"1366x657";1;1;0;0
"5eba67eb17a5461ab1182c5a";"BRAC2_horiAA_1st300";2;71;595,985000021756;"L";1;0;NA;"L";"black";"red";"magnit";4;300;"Windows 10";"Chrome 83.0.4103.116";"1366x657";1;1;1;1
"5eba67eb17a5461ab1182c5a";"BRAC2_horiAA_1st300";2;72;899,660000111908;"A";1;0;NA;"A";"black";"blue";"magnit";9;300;"Windows 10";"Chrome 83.0.4103.116";"1366x657";0;1;1;0
"5eba67eb17a5461ab1182c5a";"BRAC2_horiAA_1st300";2;73;438,999999780208;"L";1;0;NA;"L";"black";"blue";"parity";2;300;"Windows 10";"Chrome 83.0.4103.116";"1366x657";1;1;0;0
"5eba67eb17a5461ab1182c5a";"BRAC2_horiAA_1st300";2;74;594,939999980852;"L";1;0;NA;"L";"black";"blue";"parity";8;300;"Windows 10";"Chrome 83.0.4103.116";"1366x657";0;0;0;0
"5eba67eb17a5461ab1182c5a";"BRAC2_horiAA_1st300";2;75;471,90500004217;"A";1;0;NA;"A";"black";"blue";"magnit";9;300;"Windows 10";"Chrome 83.0.4103.116";"1366x657";1;1;0;0
"5eba67eb17a5461ab1182c5a";"BRAC2_horiAA_1st300";2;76;435,539999976754;"L";1;0;NA;"L";"black";"red";"magnit";2;300;"Windows 10";"Chrome 83.0.4103.116";"1366x657";0;1;1;0
"5eba67eb17a5461ab1182c5a";"BRAC2_horiAA_1st300";2;77;836,344999959692;"A";1;0;NA;"A";"black";"blue";"magnit";6;300;"Windows 10";"Chrome 83.0.4103.116";"1366x657";0;1;1;0
"5eba67eb17a5461ab1182c5a";"BRAC2_horiAA_1st300";2;78;579,004999948665;"A";1;0;NA;"A";"black";"red";"parity";7;300;"Windows 10";"Chrome 83.0.4103.116";"1366x657";1;0;1;0
"5eba67eb17a5461ab1182c5a";"BRAC2_horiAA_1st300";2;79;586,049999808893;"L";1;0;NA;"L";"black";"blue";"parity";8;300;"Windows 10";"Chrome 83.0.4103.116";"1366x657";0;1;1;0
"5eba67eb17a5461ab1182c5a";"BRAC2_horiAA_1st300";2;80;610,090000089258;"A";1;0;NA;"A";"black";"red";"magnit";7;300;"Windows 10";"Chrome 83.0.4103.116";"1366x657";1;1;1;0
"5eba67eb17a5461ab1182c5a";"BRAC2_horiAA_1st300";2;81;1146,02500014007;"A";1;0;NA;"A";"black";"red";"parity";1;300;"Windows 10";"Chrome 83.0.4103.116";"1366x657";1;0;0;0
"5eba67eb17a5461ab1182c5a";"BRAC2_horiAA_1st300";2;82;400,959999999031;"L";1;0;NA;"L";"black";"blue";"parity";2;300;"Windows 10";"Chrome 83.0.4103.116";"1366x657";0;1;1;0
"5eba67eb17a5461ab1182c5a";"BRAC2_horiAA_1st300";2;83;416,459999978542;"L";1;0;NA;"L";"black";"red";"parity";4;300;"Windows 10";"Chrome 83.0.4103.116";"1366x657";0;0;1;0
"5eba67eb17a5461ab1182c5a";"BRAC2_horiAA_1st300";2;84;424,880000064149;"L";1;0;NA;"L";"black";"red";"parity";2;300;"Windows 10";"Chrome 83.0.4103.116";"1366x657";0;0;0;0
"5eba67eb17a5461ab1182c5a";"BRAC2_horiAA_1st300";2;85;485,564999980852;"A";1;0;NA;"A";"black";"blue";"parity";9;300;"Windows 10";"Chrome 83.0.4103.116";"1366x657";0;1;1;0
"5eba67eb17a5461ab1182c5a";"BRAC2_horiAA_1st300";2;86;599,644999951124;"L";1;0;NA;"L";"black";"red";"magnit";3;300;"Windows 10";"Chrome 83.0.4103.116";"1366x657";1;1;1;0
"5eba67eb17a5461ab1182c5a";"BRAC2_horiAA_1st300";2;87;904,53499997966;"L";1;0;NA;"L";"black";"blue";"magnit";4;300;"Windows 10";"Chrome 83.0.4103.116";"1366x657";0;0;1;0
"5eba67eb17a5461ab1182c5a";"BRAC2_horiAA_1st300";2;88;681,850000051782;"A";1;0;NA;"A";"black";"blue";"parity";3;300;"Windows 10";"Chrome 83.0.4103.116";"1366x657";1;1;0;0
"5eba67eb17a5461ab1182c5a";"BRAC2_horiAA_1st300";2;89;644,495000131428;"A";1;0;NA;"A";"black";"red";"magnit";8;300;"Windows 10";"Chrome 83.0.4103.116";"1366x657";1;0;1;0
"5eba67eb17a5461ab1182c5a";"BRAC2_horiAA_1st300";2;90;1056,94000003859;"L";1;0;NA;"L";"black";"blue";"parity";6;300;"Windows 10";"Chrome 83.0.4103.116";"1366x657";1;1;1;0
"5eba67eb17a5461ab1182c5a";"BRAC2_horiAA_1st300";2;91;407,129999948665;"L";1;0;NA;"L";"black";"blue";"parity";4;300;"Windows 10";"Chrome 83.0.4103.116";"1366x657";0;0;0;0
"5eba67eb17a5461ab1182c5a";"BRAC2_horiAA_1st300";2;92;443,824999965727;"L";1;0;NA;"L";"black";"red";"parity";8;300;"Windows 10";"Chrome 83.0.4103.116";"1366x657";0;0;1;0
"5eba67eb17a5461ab1182c5a";"BRAC2_horiAA_1st300";2;93;442,569999955595;"A";1;0;NA;"A";"black";"red";"parity";1;300;"Windows 10";"Chrome 83.0.4103.116";"1366x657";0;1;0;0
"5eba67eb17a5461ab1182c5a";"BRAC2_horiAA_1st300";2;94;631,05500000529;"A";1;0;NA;"A";"black";"blue";"magnit";8;300;"Windows 10";"Chrome 83.0.4103.116";"1366x657";1;0;1;0
"5eba67eb17a5461ab1182c5a";"BRAC2_horiAA_1st300";2;95;514,26999992691;"A";1;0;NA;"A";"black";"red";"parity";9;300;"Windows 10";"Chrome 83.0.4103.116";"1366x657";1;0;1;0
"5eba67eb17a5461ab1182c5a";"BRAC2_horiAA_1st300";3;0;680,944999912754;"A";1;0;NA;"A";"black";"blue";"magnit";9;0;"Windows 10";"Chrome 83.0.4103.116";"1366x657";99;99;99;99
"5eba67eb17a5461ab1182c5a";"BRAC2_horiAA_1st300";3;1;767,755000153556;"A";1;0;NA;"A";"black";"red";"magnit";7;0;"Windows 10";"Chrome 83.0.4103.116";"1366x657";0;0;1;0
"5eba67eb17a5461ab1182c5a";"BRAC2_horiAA_1st300";3;2;611,645000055432;"A";1;0;NA;"A";"black";"blue";"parity";3;0;"Windows 10";"Chrome 83.0.4103.116";"1366x657";1;0;1;0
"5eba67eb17a5461ab1182c5a";"BRAC2_horiAA_1st300";3;3;533,560000127181;"L";1;0;NA;"L";"black";"red";"parity";2;0;"Windows 10";"Chrome 83.0.4103.116";"1366x657";0;1;1;0
"5eba67eb17a5461ab1182c5a";"BRAC2_horiAA_1st300";3;4;932,950000045821;"L";1;0;NA;"L";"black";"blue";"magnit";4;0;"Windows 10";"Chrome 83.0.4103.116";"1366x657";1;0;1;0
"5eba67eb17a5461ab1182c5a";"BRAC2_horiAA_1st300";3;5;441,654999973252;"A";1;0;NA;"A";"black";"blue";"parity";3;0;"Windows 10";"Chrome 83.0.4103.116";"1366x657";1;1;0;0
"5eba67eb17a5461ab1182c5a";"BRAC2_horiAA_1st300";3;6;545,194999780506;"A";1;0;NA;"A";"black";"red";"magnit";9;0;"Windows 10";"Chrome 83.0.4103.116";"1366x657";1;0;1;0
"5eba67eb17a5461ab1182c5a";"BRAC2_horiAA_1st300";3;7;393,605000106618;"L";1;0;NA;"L";"black";"red";"magnit";3;0;"Windows 10";"Chrome 83.0.4103.116";"1366x657";0;1;0;0
"5eba67eb17a5461ab1182c5a";"BRAC2_horiAA_1st300";3;8;821,314999833703;"A";1;0;NA;"A";"black";"blue";"magnit";8;0;"Windows 10";"Chrome 83.0.4103.116";"1366x657";0;1;1;0
"5eba67eb17a5461ab1182c5a";"BRAC2_horiAA_1st300";3;9;541,050000116229;"A";1;0;NA;"A";"black";"blue";"parity";9;0;"Windows 10";"Chrome 83.0.4103.116";"1366x657";1;0;0;0
"5eba67eb17a5461ab1182c5a";"BRAC2_horiAA_1st300";3;10;426,535000093281;"L";1;0;NA;"L";"black";"blue";"parity";2;0;"Windows 10";"Chrome 83.0.4103.116";"1366x657";0;1;0;0
"5eba67eb17a5461ab1182c5a";"BRAC2_horiAA_1st300";3;11;473,085000179708;"A";1;0;NA;"A";"black";"blue";"magnit";6;0;"Windows 10";"Chrome 83.0.4103.116";"1366x657";1;1;0;0
"5eba67eb17a5461ab1182c5a";"BRAC2_horiAA_1st300";3;12;392,394999973476;"L";1;0;NA;"L";"black";"blue";"magnit";3;0;"Windows 10";"Chrome 83.0.4103.116";"1366x657";0;1;0;0
"5eba67eb17a5461ab1182c5a";"BRAC2_horiAA_1st300";3;13;498,444999800995;"L";1;0;NA;"L";"black";"red";"magnit";1;0;"Windows 10";"Chrome 83.0.4103.116";"1366x657";0;0;1;0
"5eba67eb17a5461ab1182c5a";"BRAC2_horiAA_1st300";3;14;443,08999995701;"A";1;0;NA;"A";"black";"red";"magnit";8;0;"Windows 10";"Chrome 83.0.4103.116";"1366x657";0;1;0;0
"5eba67eb17a5461ab1182c5a";"BRAC2_horiAA_1st300";3;15;353,584999917075;"L";1;0;NA;"L";"black";"red";"magnit";4;0;"Windows 10";"Chrome 83.0.4103.116";"1366x657";0;1;0;0
"5eba67eb17a5461ab1182c5a";"BRAC2_horiAA_1st300";3;16;434,68499998562;"L";1;0;NA;"L";"black";"red";"magnit";2;0;"Windows 10";"Chrome 83.0.4103.116";"1366x657";0;0;0;0
"5eba67eb17a5461ab1182c5a";"BRAC2_horiAA_1st300";3;17;498,279999941587;"L";1;0;NA;"L";"black";"blue";"parity";4;0;"Windows 10";"Chrome 83.0.4103.116";"1366x657";1;0;1;0
"5eba67eb17a5461ab1182c5a";"BRAC2_horiAA_1st300";3;18;382,044999860227;"A";1;0;NA;"A";"black";"red";"parity";9;0;"Windows 10";"Chrome 83.0.4103.116";"1366x657";0;1;1;0
"5eba67eb17a5461ab1182c5a";"BRAC2_horiAA_1st300";3;19;642,405000049621;"A";1;0;NA;"A";"black";"red";"magnit";6;0;"Windows 10";"Chrome 83.0.4103.116";"1366x657";1;0;0;0
"5eba67eb17a5461ab1182c5a";"BRAC2_horiAA_1st300";3;20;431,739999912679;"L";1;1;NA;"A";"black";"red";"parity";1;0;"Windows 10";"Chrome 83.0.4103.116";"1366x657";1;0;0;0
"5eba67eb17a5461ab1182c5a";"BRAC2_horiAA_1st300";3;21;484,81999989599;"L";1;0;NA;"L";"black";"blue";"parity";6;0;"Windows 10";"Chrome 83.0.4103.116";"1366x657";0;1;1;1
"5eba67eb17a5461ab1182c5a";"BRAC2_horiAA_1st300";3;22;517,195000080392;"L";1;0;NA;"L";"black";"red";"parity";4;0;"Windows 10";"Chrome 83.0.4103.116";"1366x657";0;0;1;0
"5eba67eb17a5461ab1182c5a";"BRAC2_horiAA_1st300";3;23;523,045000154525;"A";1;0;NA;"A";"black";"red";"magnit";8;0;"Windows 10";"Chrome 83.0.4103.116";"1366x657";1;1;0;0
"5eba67eb17a5461ab1182c5a";"BRAC2_horiAA_1st300";3;24;1138,01999995485;"A";1;0;NA;"A";"black";"red";"parity";7;0;"Windows 10";"Chrome 83.0.4103.116";"1366x657";1;0;0;0
"5eba67eb17a5461ab1182c5a";"BRAC2_horiAA_1st300";3;25;569,545000093058;"L";1;0;NA;"L";"black";"blue";"parity";6;0;"Windows 10";"Chrome 83.0.4103.116";"1366x657";0;1;1;0
"5eba67eb17a5461ab1182c5a";"BRAC2_horiAA_1st300";3;26;516,070000128821;"A";1;0;NA;"A";"black";"blue";"magnit";7;0;"Windows 10";"Chrome 83.0.4103.116";"1366x657";1;1;0;0
"5eba67eb17a5461ab1182c5a";"BRAC2_horiAA_1st300";3;27;1153,54999992996;"L";1;0;NA;"L";"black";"blue";"parity";6;0;"Windows 10";"Chrome 83.0.4103.116";"1366x657";1;1;0;0
"5eba67eb17a5461ab1182c5a";"BRAC2_horiAA_1st300";3;28;1003,25999991037;"A";1;1;NA;"L";"black";"blue";"magnit";4;0;"Windows 10";"Chrome 83.0.4103.116";"1366x657";1;0;0;0
"5eba67eb17a5461ab1182c5a";"BRAC2_horiAA_1st300";3;29;1079,2449999135;"A";1;0;NA;"A";"black";"red";"magnit";6;0;"Windows 10";"Chrome 83.0.4103.116";"1366x657";0;1;1;1
"5eba67eb17a5461ab1182c5a";"BRAC2_horiAA_1st300";3;30;431,244999868795;"L";1;0;NA;"L";"black";"red";"magnit";3;0;"Windows 10";"Chrome 83.0.4103.116";"1366x657";0;1;0;0
"5eba67eb17a5461ab1182c5a";"BRAC2_horiAA_1st300";3;31;515,424999874085;"L";1;0;NA;"L";"black";"red";"parity";6;0;"Windows 10";"Chrome 83.0.4103.116";"1366x657";1;0;0;0
"5eba67eb17a5461ab1182c5a";"BRAC2_horiAA_1st300";3;32;1027,76500000618;"A";1;0;NA;"A";"black";"blue";"magnit";8;0;"Windows 10";"Chrome 83.0.4103.116";"1366x657";1;1;1;0
"5eba67eb17a5461ab1182c5a";"BRAC2_horiAA_1st300";3;33;930,260000051931;"A";1;0;NA;"A";"black";"blue";"magnit";9;0;"Windows 10";"Chrome 83.0.4103.116";"1366x657";0;0;0;0
"5eba67eb17a5461ab1182c5a";"BRAC2_horiAA_1st300";3;34;838,960000080988;"L";1;0;NA;"L";"black";"blue";"magnit";2;0;"Windows 10";"Chrome 83.0.4103.116";"1366x657";0;1;0;0
"5eba67eb17a5461ab1182c5a";"BRAC2_horiAA_1st300";3;35;476,070000091568;"A";1;0;NA;"A";"black";"blue";"parity";1;0;"Windows 10";"Chrome 83.0.4103.116";"1366x657";1;1;0;0
"5eba67eb17a5461ab1182c5a";"BRAC2_horiAA_1st300";3;36;469,89499987103;"A";1;0;NA;"A";"black";"red";"magnit";7;0;"Windows 10";"Chrome 83.0.4103.116";"1366x657";1;0;1;0
"5eba67eb17a5461ab1182c5a";"BRAC2_horiAA_1st300";3;37;361,920000053942;"L";1;0;NA;"L";"black";"red";"magnit";4;0;"Windows 10";"Chrome 83.0.4103.116";"1366x657";0;1;0;0
"5eba67eb17a5461ab1182c5a";"BRAC2_horiAA_1st300";3;38;600,219999905676;"L";1;0;NA;"L";"black";"blue";"magnit";1;0;"Windows 10";"Chrome 83.0.4103.116";"1366x657";0;0;1;0
"5eba67eb17a5461ab1182c5a";"BRAC2_horiAA_1st300";3;39;416,91999998875;"L";1;0;NA;"L";"black";"blue";"magnit";3;0;"Windows 10";"Chrome 83.0.4103.116";"1366x657";0;0;0;0
"5eba67eb17a5461ab1182c5a";"BRAC2_horiAA_1st300";3;40;744,024999905378;"A";1;0;NA;"A";"black";"red";"parity";1;0;"Windows 10";"Chrome 83.0.4103.116";"1366x657";1;1;1;0
"5eba67eb17a5461ab1182c5a";"BRAC2_horiAA_1st300";3;41;382,85499997437;"L";1;1;NA;"A";"black";"red";"parity";9;0;"Windows 10";"Chrome 83.0.4103.116";"1366x657";0;0;0;0
"5eba67eb17a5461ab1182c5a";"BRAC2_horiAA_1st300";3;42;709,71000008285;"A";1;0;NA;"A";"black";"red";"parity";3;0;"Windows 10";"Chrome 83.0.4103.116";"1366x657";0;0;0;1
"5eba67eb17a5461ab1182c5a";"BRAC2_horiAA_1st300";3;43;393,094999948516;"L";1;0;NA;"L";"black";"red";"parity";2;0;"Windows 10";"Chrome 83.0.4103.116";"1366x657";0;1;0;0
"5eba67eb17a5461ab1182c5a";"BRAC2_horiAA_1st300";3;44;556,414999999106;"L";1;0;NA;"L";"black";"red";"parity";8;0;"Windows 10";"Chrome 83.0.4103.116";"1366x657";0;0;0;0
"5eba67eb17a5461ab1182c5a";"BRAC2_horiAA_1st300";3;45;523,684999905527;"L";1;0;NA;"L";"black";"red";"parity";2;0;"Windows 10";"Chrome 83.0.4103.116";"1366x657";0;0;0;0
"5eba67eb17a5461ab1182c5a";"BRAC2_horiAA_1st300";3;46;552,005000179633;"A";1;0;NA;"A";"black";"blue";"magnit";9;0;"Windows 10";"Chrome 83.0.4103.116";"1366x657";1;1;1;0
"5eba67eb17a5461ab1182c5a";"BRAC2_horiAA_1st300";3;47;447,685000021011;"L";1;0;NA;"L";"black";"blue";"magnit";1;0;"Windows 10";"Chrome 83.0.4103.116";"1366x657";0;1;0;0
"5eba67eb17a5461ab1182c5a";"BRAC2_horiAA_1st300";3;48;529,330000048503;"A";1;0;NA;"A";"black";"blue";"magnit";8;0;"Windows 10";"Chrome 83.0.4103.116";"1366x657";0;1;0;0
"5eba67eb17a5461ab1182c5a";"BRAC2_horiAA_1st300";3;49;446,824999991804;"A";1;0;NA;"A";"black";"blue";"magnit";6;0;"Windows 10";"Chrome 83.0.4103.116";"1366x657";0;0;0;0
"5eba67eb17a5461ab1182c5a";"BRAC2_horiAA_1st300";3;50;834,315000101924;"L";1;0;NA;"L";"black";"red";"magnit";2;0;"Windows 10";"Chrome 83.0.4103.116";"1366x657";0;1;1;0
"5eba67eb17a5461ab1182c5a";"BRAC2_horiAA_1st300";3;51;430,550000164658;"L";1;0;NA;"L";"black";"red";"magnit";1;0;"Windows 10";"Chrome 83.0.4103.116";"1366x657";0;0;0;0
"5eba67eb17a5461ab1182c5a";"BRAC2_horiAA_1st300";3;52;1126,9499999471;"A";1;0;NA;"A";"black";"blue";"parity";9;0;"Windows 10";"Chrome 83.0.4103.116";"1366x657";1;1;1;0
"5eba67eb17a5461ab1182c5a";"BRAC2_horiAA_1st300";3;53;515,150000108406;"L";1;0;NA;"L";"black";"red";"magnit";1;0;"Windows 10";"Chrome 83.0.4103.116";"1366x657";1;1;1;0
"5eba67eb17a5461ab1182c5a";"BRAC2_horiAA_1st300";3;54;485,804999945685;"L";1;0;NA;"L";"black";"red";"parity";4;0;"Windows 10";"Chrome 83.0.4103.116";"1366x657";1;0;0;0
"5eba67eb17a5461ab1182c5a";"BRAC2_horiAA_1st300";3;55;389,435000019148;"L";1;0;NA;"L";"black";"red";"magnit";2;0;"Windows 10";"Chrome 83.0.4103.116";"1366x657";1;0;0;0
"5eba67eb17a5461ab1182c5a";"BRAC2_horiAA_1st300";3;56;362,54999996163;"A";1;0;NA;"A";"black";"blue";"parity";7;0;"Windows 10";"Chrome 83.0.4103.116";"1366x657";1;1;1;0
"5eba67eb17a5461ab1182c5a";"BRAC2_horiAA_1st300";3;57;555,844999849796;"L";1;0;NA;"L";"black";"red";"parity";4;0;"Windows 10";"Chrome 83.0.4103.116";"1366x657";0;1;1;0
"5eba67eb17a5461ab1182c5a";"BRAC2_horiAA_1st300";3;58;571,860000025481;"A";1;0;NA;"A";"black";"red";"magnit";9;0;"Windows 10";"Chrome 83.0.4103.116";"1366x657";1;1;0;0
"5eba67eb17a5461ab1182c5a";"BRAC2_horiAA_1st300";3;59;1035,89499997906;"A";1;0;NA;"A";"black";"blue";"parity";1;0;"Windows 10";"Chrome 83.0.4103.116";"1366x657";1;0;1;0
"5eba67eb17a5461ab1182c5a";"BRAC2_horiAA_1st300";3;60;541,470000054687;"L";1;0;NA;"L";"black";"blue";"parity";8;0;"Windows 10";"Chrome 83.0.4103.116";"1366x657";0;1;0;0
"5eba67eb17a5461ab1182c5a";"BRAC2_horiAA_1st300";3;61;550,044999923557;"A";1;0;NA;"A";"black";"red";"magnit";7;0;"Windows 10";"Chrome 83.0.4103.116";"1366x657";1;1;1;0
"5eba67eb17a5461ab1182c5a";"BRAC2_horiAA_1st300";3;62;495,799999916926;"L";1;0;NA;"L";"black";"blue";"parity";2;0;"Windows 10";"Chrome 83.0.4103.116";"1366x657";1;1;1;0
"5eba67eb17a5461ab1182c5a";"BRAC2_horiAA_1st300";3;63;866,17000005208;"L";1;0;NA;"L";"black";"blue";"magnit";3;0;"Windows 10";"Chrome 83.0.4103.116";"1366x657";1;0;0;0
"5eba67eb17a5461ab1182c5a";"BRAC2_horiAA_1st300";3;64;487,265000119805;"A";1;0;NA;"A";"black";"blue";"parity";7;0;"Windows 10";"Chrome 83.0.4103.116";"1366x657";1;1;0;0
"5eba67eb17a5461ab1182c5a";"BRAC2_horiAA_1st300";3;65;648,904999950901;"L";1;0;NA;"L";"black";"blue";"parity";4;0;"Windows 10";"Chrome 83.0.4103.116";"1366x657";0;1;0;0
"5eba67eb17a5461ab1182c5a";"BRAC2_horiAA_1st300";3;66;413,780000060797;"L";1;0;NA;"L";"black";"red";"parity";6;0;"Windows 10";"Chrome 83.0.4103.116";"1366x657";0;0;1;0
"5eba67eb17a5461ab1182c5a";"BRAC2_horiAA_1st300";3;67;499,34499990195;"L";1;0;NA;"L";"black";"red";"parity";8;0;"Windows 10";"Chrome 83.0.4103.116";"1366x657";0;0;0;0
"5eba67eb17a5461ab1182c5a";"BRAC2_horiAA_1st300";3;68;626,960000023246;"A";1;0;NA;"A";"black";"red";"magnit";6;0;"Windows 10";"Chrome 83.0.4103.116";"1366x657";1;1;0;0
"5eba67eb17a5461ab1182c5a";"BRAC2_horiAA_1st300";3;69;403,020000085235;"A";1;0;NA;"A";"black";"red";"parity";7;0;"Windows 10";"Chrome 83.0.4103.116";"1366x657";1;0;0;0
"5eba67eb17a5461ab1182c5a";"BRAC2_horiAA_1st300";3;70;514,899999834597;"L";1;0;NA;"L";"black";"blue";"magnit";2;0;"Windows 10";"Chrome 83.0.4103.116";"1366x657";1;1;1;0
"5eba67eb17a5461ab1182c5a";"BRAC2_horiAA_1st300";3;71;438,205000013113;"L";1;0;NA;"L";"black";"blue";"parity";8;0;"Windows 10";"Chrome 83.0.4103.116";"1366x657";1;0;0;0
"5eba67eb17a5461ab1182c5a";"BRAC2_horiAA_1st300";3;72;522,180000087246;"A";1;0;NA;"A";"black";"red";"magnit";9;0;"Windows 10";"Chrome 83.0.4103.116";"1366x657";1;1;1;0
"5eba67eb17a5461ab1182c5a";"BRAC2_horiAA_1st300";3;73;842,824999941513;"L";1;0;NA;"L";"black";"red";"magnit";3;0;"Windows 10";"Chrome 83.0.4103.116";"1366x657";0;1;0;0
"5eba67eb17a5461ab1182c5a";"BRAC2_horiAA_1st300";3;74;1047,01500013471;"A";1;0;NA;"A";"black";"red";"parity";1;0;"Windows 10";"Chrome 83.0.4103.116";"1366x657";1;1;0;0
"5eba67eb17a5461ab1182c5a";"BRAC2_horiAA_1st300";3;75;903,669999912381;"L";1;0;NA;"L";"black";"red";"magnit";4;0;"Windows 10";"Chrome 83.0.4103.116";"1366x657";1;1;0;0
"5eba67eb17a5461ab1182c5a";"BRAC2_horiAA_1st300";3;76;435,470000142232;"L";1;0;NA;"L";"black";"red";"parity";8;0;"Windows 10";"Chrome 83.0.4103.116";"1366x657";1;0;0;0
"5eba67eb17a5461ab1182c5a";"BRAC2_horiAA_1st300";3;77;584,840000141412;"A";1;0;NA;"A";"black";"blue";"parity";1;0;"Windows 10";"Chrome 83.0.4103.116";"1366x657";0;1;1;0
"5eba67eb17a5461ab1182c5a";"BRAC2_horiAA_1st300";3;78;445,099999895319;"A";1;0;NA;"A";"black";"red";"parity";9;0;"Windows 10";"Chrome 83.0.4103.116";"1366x657";0;0;1;0
"5eba67eb17a5461ab1182c5a";"BRAC2_horiAA_1st300";3;79;1017,55500002764;"A";1;0;NA;"A";"black";"blue";"magnit";7;0;"Windows 10";"Chrome 83.0.4103.116";"1366x657";1;0;1;0
"5eba67eb17a5461ab1182c5a";"BRAC2_horiAA_1st300";3;80;400,514999870211;"L";1;0;NA;"L";"black";"blue";"magnit";2;0;"Windows 10";"Chrome 83.0.4103.116";"1366x657";0;1;0;0
"5eba67eb17a5461ab1182c5a";"BRAC2_horiAA_1st300";3;81;630,029999883845;"L";1;0;NA;"L";"black";"blue";"parity";8;0;"Windows 10";"Chrome 83.0.4103.116";"1366x657";1;0;0;0
"5eba67eb17a5461ab1182c5a";"BRAC2_horiAA_1st300";3;82;599,105000030249;"A";1;0;NA;"A";"black";"blue";"parity";9;0;"Windows 10";"Chrome 83.0.4103.116";"1366x657";0;1;0;0
"5eba67eb17a5461ab1182c5a";"BRAC2_horiAA_1st300";3;83;473,87499990873;"L";1;0;NA;"L";"black";"blue";"magnit";4;0;"Windows 10";"Chrome 83.0.4103.116";"1366x657";1;1;0;0
"5eba67eb17a5461ab1182c5a";"BRAC2_horiAA_1st300";3;84;602,094999980181;"A";1;0;NA;"A";"black";"blue";"magnit";7;0;"Windows 10";"Chrome 83.0.4103.116";"1366x657";0;1;0;0
"5eba67eb17a5461ab1182c5a";"BRAC2_horiAA_1st300";3;85;385,910000186414;"L";1;0;NA;"L";"black";"blue";"parity";4;0;"Windows 10";"Chrome 83.0.4103.116";"1366x657";1;1;0;0
"5eba67eb17a5461ab1182c5a";"BRAC2_horiAA_1st300";3;86;474,290000041947;"A";1;0;NA;"A";"black";"red";"parity";3;0;"Windows 10";"Chrome 83.0.4103.116";"1366x657";0;1;1;0
"5eba67eb17a5461ab1182c5a";"BRAC2_horiAA_1st300";3;87;410,245000151917;"L";1;0;NA;"L";"black";"blue";"parity";2;0;"Windows 10";"Chrome 83.0.4103.116";"1366x657";0;1;1;0
"5eba67eb17a5461ab1182c5a";"BRAC2_horiAA_1st300";3;88;414,635000051931;"L";1;0;NA;"L";"black";"blue";"magnit";1;0;"Windows 10";"Chrome 83.0.4103.116";"1366x657";1;0;0;0
"5eba67eb17a5461ab1182c5a";"BRAC2_horiAA_1st300";3;89;465,310000116006;"A";1;0;NA;"A";"black";"red";"parity";3;0;"Windows 10";"Chrome 83.0.4103.116";"1366x657";1;1;1;0
"5eba67eb17a5461ab1182c5a";"BRAC2_horiAA_1st300";3;90;567,765000043437;"A";1;0;NA;"A";"black";"blue";"parity";7;0;"Windows 10";"Chrome 83.0.4103.116";"1366x657";0;0;1;0
"5eba67eb17a5461ab1182c5a";"BRAC2_horiAA_1st300";3;91;973,339999793097;"A";1;0;NA;"A";"black";"red";"magnit";8;0;"Windows 10";"Chrome 83.0.4103.116";"1366x657";1;0;1;0
"5eba67eb17a5461ab1182c5a";"BRAC2_horiAA_1st300";3;92;440,075000049546;"A";1;0;NA;"A";"black";"red";"parity";7;0;"Windows 10";"Chrome 83.0.4103.116";"1366x657";1;0;0;0
"5eba67eb17a5461ab1182c5a";"BRAC2_horiAA_1st300";3;93;544,660000130534;"L";1;0;NA;"L";"black";"red";"parity";6;0;"Windows 10";"Chrome 83.0.4103.116";"1366x657";0;1;0;0
"5eba67eb17a5461ab1182c5a";"BRAC2_horiAA_1st300";3;94;523,915000027046;"A";1;0;NA;"A";"black";"blue";"parity";3;0;"Windows 10";"Chrome 83.0.4103.116";"1366x657";0;1;1;0
"5eba67eb17a5461ab1182c5a";"BRAC2_horiAA_1st300";3;95;756,395000033081;"A";1;0;NA;"A";"black";"blue";"magnit";6;0;"Windows 10";"Chrome 83.0.4103.116";"1366x657";1;0;0;0
"5d1f9776676cd1001580ae9c";"BRAC2_vertLL_1st300";0;0;980;"A";1;0;NA;"A";"black";"red";"parity";2;300;"Mac OS 10.15.5";"Safari 13.1.1";"1440x837";99;99;99;99
"5d1f9776676cd1001580ae9c";"BRAC2_vertLL_1st300";0;1;1244;"L";1;0;NA;"L";"black";"blue";"parity";1;300;"Mac OS 10.15.5";"Safari 13.1.1";"1440x837";0;1;1;0
"5d1f9776676cd1001580ae9c";"BRAC2_vertLL_1st300";0;2;1275;"L";1;1;NA;"A";"black";"blue";"parity";8;300;"Mac OS 10.15.5";"Safari 13.1.1";"1440x837";0;1;0;0
"5d1f9776676cd1001580ae9c";"BRAC2_vertLL_1st300";0;3;938;"A";1;0;NA;"A";"black";"red";"parity";6;300;"Mac OS 10.15.5";"Safari 13.1.1";"1440x837";0;0;1;1
"5d1f9776676cd1001580ae9c";"BRAC2_vertLL_1st300";0;4;782,999999999985;"L";1;0;NA;"L";"black";"blue";"magnit";9;300;"Mac OS 10.15.5";"Safari 13.1.1";"1440x837";1;1;1;0
"5d1f9776676cd1001580ae9c";"BRAC2_vertLL_1st300";0;5;1125;"A";1;0;NA;"A";"black";"red";"parity";8;300;"Mac OS 10.15.5";"Safari 13.1.1";"1440x837";1;1;1;0
"5d1f9776676cd1001580ae9c";"BRAC2_vertLL_1st300";0;6;842;"L";1;0;NA;"L";"black";"red";"parity";7;300;"Mac OS 10.15.5";"Safari 13.1.1";"1440x837";0;1;0;0
"5d1f9776676cd1001580ae9c";"BRAC2_vertLL_1st300";0;7;711;"A";1;0;NA;"A";"black";"blue";"parity";6;300;"Mac OS 10.15.5";"Safari 13.1.1";"1440x837";0;1;1;0
"5d1f9776676cd1001580ae9c";"BRAC2_vertLL_1st300";0;8;889;"A";1;0;NA;"A";"black";"red";"magnit";1;300;"Mac OS 10.15.5";"Safari 13.1.1";"1440x837";1;0;1;0
"5d1f9776676cd1001580ae9c";"BRAC2_vertLL_1st300";0;9;913;"A";1;0;NA;"A";"black";"blue";"parity";8;300;"Mac OS 10.15.5";"Safari 13.1.1";"1440x837";1;0;1;0
"5d1f9776676cd1001580ae9c";"BRAC2_vertLL_1st300";0;10;767;"L";1;0;NA;"L";"black";"blue";"magnit";9;300;"Mac OS 10.15.5";"Safari 13.1.1";"1440x837";1;1;0;0
"5d1f9776676cd1001580ae9c";"BRAC2_vertLL_1st300";0;11;918;"A";1;0;NA;"A";"black";"red";"magnit";3;300;"Mac OS 10.15.5";"Safari 13.1.1";"1440x837";0;1;1;0
"5d1f9776676cd1001580ae9c";"BRAC2_vertLL_1st300";0;12;559;"L";1;0;NA;"L";"black";"red";"magnit";8;300;"Mac OS 10.15.5";"Safari 13.1.1";"1440x837";0;1;0;0
"5d1f9776676cd1001580ae9c";"BRAC2_vertLL_1st300";0;13;1008;"L";1;0;NA;"L";"black";"red";"magnit";7;300;"Mac OS 10.15.5";"Safari 13.1.1";"1440x837";0;0;0;0
"5d1f9776676cd1001580ae9c";"BRAC2_vertLL_1st300";0;14;780;"A";1;1;NA;"L";"black";"blue";"parity";3;300;"Mac OS 10.15.5";"Safari 13.1.1";"1440x837";1;0;1;0
"5d1f9776676cd1001580ae9c";"BRAC2_vertLL_1st300";0;15;750;"L";1;0;NA;"L";"black";"red";"parity";9;300;"Mac OS 10.15.5";"Safari 13.1.1";"1440x837";0;0;1;1
"5d1f9776676cd1001580ae9c";"BRAC2_vertLL_1st300";0;16;751;"L";1;0;NA;"L";"black";"red";"magnit";6;300;"Mac OS 10.15.5";"Safari 13.1.1";"1440x837";1;0;0;0
"5d1f9776676cd1001580ae9c";"BRAC2_vertLL_1st300";0;17;647;"L";1;0;NA;"L";"black";"red";"magnit";9;300;"Mac OS 10.15.5";"Safari 13.1.1";"1440x837";0;0;0;0
"5d1f9776676cd1001580ae9c";"BRAC2_vertLL_1st300";0;18;1103;"L";1;0;NA;"L";"black";"red";"parity";7;300;"Mac OS 10.15.5";"Safari 13.1.1";"1440x837";1;0;0;0
"5d1f9776676cd1001580ae9c";"BRAC2_vertLL_1st300";0;19;690;"A";1;0;NA;"A";"black";"red";"parity";6;300;"Mac OS 10.15.5";"Safari 13.1.1";"1440x837";0;1;0;0
"5d1f9776676cd1001580ae9c";"BRAC2_vertLL_1st300";0;20;614;"L";1;0;NA;"L";"black";"red";"magnit";7;300;"Mac OS 10.15.5";"Safari 13.1.1";"1440x837";1;1;0;0
"5d1f9776676cd1001580ae9c";"BRAC2_vertLL_1st300";0;21;558;"A";1;0;NA;"A";"black";"blue";"parity";2;300;"Mac OS 10.15.5";"Safari 13.1.1";"1440x837";1;1;1;0
"5d1f9776676cd1001580ae9c";"BRAC2_vertLL_1st300";0;22;529;"L";1;0;NA;"L";"black";"blue";"magnit";7;300;"Mac OS 10.15.5";"Safari 13.1.1";"1440x837";1;1;0;0
"5d1f9776676cd1001580ae9c";"BRAC2_vertLL_1st300";0;23;989;"L";1;0;NA;"L";"black";"blue";"parity";9;300;"Mac OS 10.15.5";"Safari 13.1.1";"1440x837";1;0;0;0
"5d1f9776676cd1001580ae9c";"BRAC2_vertLL_1st300";0;24;572,999999999971;"L";1;0;NA;"L";"black";"blue";"magnit";8;300;"Mac OS 10.15.5";"Safari 13.1.1";"1440x837";1;0;0;0
"5d1f9776676cd1001580ae9c";"BRAC2_vertLL_1st300";0;25;795;"L";1;0;NA;"L";"black";"red";"parity";9;300;"Mac OS 10.15.5";"Safari 13.1.1";"1440x837";1;0;1;0
"5d1f9776676cd1001580ae9c";"BRAC2_vertLL_1st300";0;26;506;"A";1;0;NA;"A";"black";"blue";"magnit";2;300;"Mac OS 10.15.5";"Safari 13.1.1";"1440x837";1;1;1;0
"5d1f9776676cd1001580ae9c";"BRAC2_vertLL_1st300";0;27;774;"A";1;1;NA;"L";"black";"blue";"parity";3;300;"Mac OS 10.15.5";"Safari 13.1.1";"1440x837";1;1;0;0
"5d1f9776676cd1001580ae9c";"BRAC2_vertLL_1st300";0;28;963;"A";1;0;NA;"A";"black";"blue";"parity";4;300;"Mac OS 10.15.5";"Safari 13.1.1";"1440x837";0;1;0;1
"5d1f9776676cd1001580ae9c";"BRAC2_vertLL_1st300";0;29;560;"A";1;0;NA;"A";"black";"blue";"magnit";1;300;"Mac OS 10.15.5";"Safari 13.1.1";"1440x837";1;0;0;0
"5d1f9776676cd1001580ae9c";"BRAC2_vertLL_1st300";0;30;1122;"A";1;1;NA;"L";"black";"blue";"magnit";6;300;"Mac OS 10.15.5";"Safari 13.1.1";"1440x837";0;1;0;0
"5d1f9776676cd1001580ae9c";"BRAC2_vertLL_1st300";0;31;662;"L";1;0;NA;"L";"black";"blue";"magnit";8;300;"Mac OS 10.15.5";"Safari 13.1.1";"1440x837";0;0;0;1
"5d1f9776676cd1001580ae9c";"BRAC2_vertLL_1st300";0;32;514;"A";1;0;NA;"A";"black";"blue";"magnit";2;300;"Mac OS 10.15.5";"Safari 13.1.1";"1440x837";0;1;0;0
"5d1f9776676cd1001580ae9c";"BRAC2_vertLL_1st300";0;33;761;"A";1;0;NA;"A";"black";"blue";"parity";4;300;"Mac OS 10.15.5";"Safari 13.1.1";"1440x837";1;0;0;0
"5d1f9776676cd1001580ae9c";"BRAC2_vertLL_1st300";0;34;661;"A";1;0;NA;"A";"black";"red";"parity";2;300;"Mac OS 10.15.5";"Safari 13.1.1";"1440x837";0;0;1;0
"5d1f9776676cd1001580ae9c";"BRAC2_vertLL_1st300";0;35;673;"L";1;0;NA;"L";"black";"red";"parity";3;300;"Mac OS 10.15.5";"Safari 13.1.1";"1440x837";0;1;0;0
"5d1f9776676cd1001580ae9c";"BRAC2_vertLL_1st300";0;36;885;"L";1;0;NA;"L";"black";"blue";"parity";7;300;"Mac OS 10.15.5";"Safari 13.1.1";"1440x837";0;0;1;0
"5d1f9776676cd1001580ae9c";"BRAC2_vertLL_1st300";0;37;873,999999999971;"L";1;0;NA;"L";"black";"red";"parity";3;300;"Mac OS 10.15.5";"Safari 13.1.1";"1440x837";0;0;1;0
"5d1f9776676cd1001580ae9c";"BRAC2_vertLL_1st300";0;38;751,999999999971;"L";1;0;NA;"L";"black";"blue";"parity";1;300;"Mac OS 10.15.5";"Safari 13.1.1";"1440x837";0;0;1;0
"5d1f9776676cd1001580ae9c";"BRAC2_vertLL_1st300";0;39;566,000000000029;"L";1;0;NA;"L";"black";"red";"magnit";8;300;"Mac OS 10.15.5";"Safari 13.1.1";"1440x837";1;0;1;0
"5d1f9776676cd1001580ae9c";"BRAC2_vertLL_1st300";0;40;707,999999999971;"L";1;0;NA;"L";"black";"blue";"parity";3;300;"Mac OS 10.15.5";"Safari 13.1.1";"1440x837";1;0;1;0
"5d1f9776676cd1001580ae9c";"BRAC2_vertLL_1st300";0;41;583;"L";1;0;NA;"L";"black";"red";"magnit";8;300;"Mac OS 10.15.5";"Safari 13.1.1";"1440x837";1;0;1;0
"5d1f9776676cd1001580ae9c";"BRAC2_vertLL_1st300";0;42;813,999999999971;"L";1;1;NA;"A";"black";"red";"magnit";3;300;"Mac OS 10.15.5";"Safari 13.1.1";"1440x837";0;1;0;0
"5d1f9776676cd1001580ae9c";"BRAC2_vertLL_1st300";0;43;1035;"L";1;0;NA;"L";"black";"blue";"parity";1;300;"Mac OS 10.15.5";"Safari 13.1.1";"1440x837";1;1;1;1
"5d1f9776676cd1001580ae9c";"BRAC2_vertLL_1st300";0;44;660;"A";1;0;NA;"A";"black";"blue";"parity";8;300;"Mac OS 10.15.5";"Safari 13.1.1";"1440x837";0;1;0;0
"5d1f9776676cd1001580ae9c";"BRAC2_vertLL_1st300";0;45;613;"L";1;0;NA;"L";"black";"red";"magnit";9;300;"Mac OS 10.15.5";"Safari 13.1.1";"1440x837";1;1;1;0
"5d1f9776676cd1001580ae9c";"BRAC2_vertLL_1st300";0;46;653;"L";1;0;NA;"L";"black";"red";"parity";1;300;"Mac OS 10.15.5";"Safari 13.1.1";"1440x837";1;0;0;0
"5d1f9776676cd1001580ae9c";"BRAC2_vertLL_1st300";0;47;573;"A";1;0;NA;"A";"black";"blue";"parity";4;300;"Mac OS 10.15.5";"Safari 13.1.1";"1440x837";0;1;1;0
"5d1f9776676cd1001580ae9c";"BRAC2_vertLL_1st300";0;48;529;"L";1;0;NA;"L";"black";"blue";"magnit";8;300;"Mac OS 10.15.5";"Safari 13.1.1";"1440x837";1;1;0;0
"5d1f9776676cd1001580ae9c";"BRAC2_vertLL_1st300";0;49;861;"A";1;0;NA;"A";"black";"blue";"magnit";1;300;"Mac OS 10.15.5";"Safari 13.1.1";"1440x837";0;1;0;0
"5d1f9776676cd1001580ae9c";"BRAC2_vertLL_1st300";0;50;708;"A";1;0;NA;"A";"black";"red";"parity";6;300;"Mac OS 10.15.5";"Safari 13.1.1";"1440x837";1;0;1;0
"5d1f9776676cd1001580ae9c";"BRAC2_vertLL_1st300";0;51;503,000000000058;"A";1;0;NA;"A";"black";"red";"magnit";2;300;"Mac OS 10.15.5";"Safari 13.1.1";"1440x837";1;0;0;0
"5d1f9776676cd1001580ae9c";"BRAC2_vertLL_1st300";0;52;473,000000000029;"L";1;0;NA;"L";"black";"blue";"parity";7;300;"Mac OS 10.15.5";"Safari 13.1.1";"1440x837";1;1;1;0
"5d1f9776676cd1001580ae9c";"BRAC2_vertLL_1st300";0;53;477;"A";1;0;NA;"A";"black";"blue";"magnit";3;300;"Mac OS 10.15.5";"Safari 13.1.1";"1440x837";1;1;0;0
"5d1f9776676cd1001580ae9c";"BRAC2_vertLL_1st300";0;54;464;"A";1;0;NA;"A";"black";"red";"magnit";2;300;"Mac OS 10.15.5";"Safari 13.1.1";"1440x837";0;0;1;0
"5d1f9776676cd1001580ae9c";"BRAC2_vertLL_1st300";0;55;602,999999999942;"A";1;0;NA;"A";"black";"red";"magnit";4;300;"Mac OS 10.15.5";"Safari 13.1.1";"1440x837";0;0;0;0
"5d1f9776676cd1001580ae9c";"BRAC2_vertLL_1st300";0;56;477;"A";1;0;NA;"A";"black";"blue";"magnit";1;300;"Mac OS 10.15.5";"Safari 13.1.1";"1440x837";0;0;1;0
"5d1f9776676cd1001580ae9c";"BRAC2_vertLL_1st300";0;57;500;"A";1;0;NA;"A";"black";"blue";"magnit";3;300;"Mac OS 10.15.5";"Safari 13.1.1";"1440x837";0;0;0;0
"5d1f9776676cd1001580ae9c";"BRAC2_vertLL_1st300";0;58;586;"A";1;0;NA;"A";"black";"red";"magnit";4;300;"Mac OS 10.15.5";"Safari 13.1.1";"1440x837";0;0;1;0
"5d1f9776676cd1001580ae9c";"BRAC2_vertLL_1st300";0;59;480;"A";1;0;NA;"A";"black";"red";"parity";2;300;"Mac OS 10.15.5";"Safari 13.1.1";"1440x837";1;0;0;0
"5d1f9776676cd1001580ae9c";"BRAC2_vertLL_1st300";0;60;556;"A";1;0;NA;"A";"black";"blue";"magnit";4;300;"Mac OS 10.15.5";"Safari 13.1.1";"1440x837";1;0;1;0
"5d1f9776676cd1001580ae9c";"BRAC2_vertLL_1st300";0;61;472,999999999942;"A";1;0;NA;"A";"black";"blue";"parity";2;300;"Mac OS 10.15.5";"Safari 13.1.1";"1440x837";1;0;0;0
"5d1f9776676cd1001580ae9c";"BRAC2_vertLL_1st300";0;62;626;"L";1;0;NA;"L";"black";"red";"parity";1;300;"Mac OS 10.15.5";"Safari 13.1.1";"1440x837";0;1;1;0
"5d1f9776676cd1001580ae9c";"BRAC2_vertLL_1st300";0;63;498;"L";1;0;NA;"L";"black";"red";"magnit";6;300;"Mac OS 10.15.5";"Safari 13.1.1";"1440x837";1;0;0;0
"5d1f9776676cd1001580ae9c";"BRAC2_vertLL_1st300";0;64;425,999999999942;"A";1;0;NA;"A";"black";"blue";"magnit";4;300;"Mac OS 10.15.5";"Safari 13.1.1";"1440x837";0;1;1;0
"5d1f9776676cd1001580ae9c";"BRAC2_vertLL_1st300";0;65;597;"L";1;0;NA;"L";"black";"red";"parity";9;300;"Mac OS 10.15.5";"Safari 13.1.1";"1440x837";1;1;1;0
"5d1f9776676cd1001580ae9c";"BRAC2_vertLL_1st300";0;66;688;"L";1;0;NA;"L";"black";"red";"parity";1;300;"Mac OS 10.15.5";"Safari 13.1.1";"1440x837";0;0;0;0
"5d1f9776676cd1001580ae9c";"BRAC2_vertLL_1st300";0;67;436,999999999942;"A";1;0;NA;"A";"black";"red";"magnit";3;300;"Mac OS 10.15.5";"Safari 13.1.1";"1440x837";1;1;0;0
"5d1f9776676cd1001580ae9c";"BRAC2_vertLL_1st300";0;68;846;"A";1;0;NA;"A";"black";"red";"parity";8;300;"Mac OS 10.15.5";"Safari 13.1.1";"1440x837";1;0;0;0
"5d1f9776676cd1001580ae9c";"BRAC2_vertLL_1st300";0;69;493;"L";1;0;NA;"L";"black";"blue";"parity";9;300;"Mac OS 10.15.5";"Safari 13.1.1";"1440x837";0;1;1;0
"5d1f9776676cd1001580ae9c";"BRAC2_vertLL_1st300";0;70;452;"A";1;0;NA;"A";"black";"blue";"parity";6;300;"Mac OS 10.15.5";"Safari 13.1.1";"1440x837";0;1;0;0
"5d1f9776676cd1001580ae9c";"BRAC2_vertLL_1st300";0;71;463,000000000058;"A";1;0;NA;"A";"black";"blue";"magnit";4;300;"Mac OS 10.15.5";"Safari 13.1.1";"1440x837";1;0;0;0
"5d1f9776676cd1001580ae9c";"BRAC2_vertLL_1st300";0;72;911;"A";1;1;NA;"L";"black";"blue";"magnit";6;300;"Mac OS 10.15.5";"Safari 13.1.1";"1440x837";0;1;0;0
"5d1f9776676cd1001580ae9c";"BRAC2_vertLL_1st300";0;73;457;"A";1;0;NA;"A";"black";"blue";"magnit";2;300;"Mac OS 10.15.5";"Safari 13.1.1";"1440x837";0;1;0;1
"5d1f9776676cd1001580ae9c";"BRAC2_vertLL_1st300";0;74;497;"L";1;0;NA;"L";"black";"red";"parity";7;300;"Mac OS 10.15.5";"Safari 13.1.1";"1440x837";1;1;1;0
"5d1f9776676cd1001580ae9c";"BRAC2_vertLL_1st300";0;75;432,000000000058;"A";1;0;NA;"A";"black";"red";"parity";4;300;"Mac OS 10.15.5";"Safari 13.1.1";"1440x837";0;1;0;0
"5d1f9776676cd1001580ae9c";"BRAC2_vertLL_1st300";0;76;412;"L";1;0;NA;"L";"black";"blue";"parity";7;300;"Mac OS 10.15.5";"Safari 13.1.1";"1440x837";0;1;1;0
"5d1f9776676cd1001580ae9c";"BRAC2_vertLL_1st300";0;77;588;"L";1;0;NA;"L";"black";"blue";"parity";9;300;"Mac OS 10.15.5";"Safari 13.1.1";"1440x837";0;0;0;0
"5d1f9776676cd1001580ae9c";"BRAC2_vertLL_1st300";0;78;432;"A";1;0;NA;"A";"black";"red";"parity";4;300;"Mac OS 10.15.5";"Safari 13.1.1";"1440x837";0;1;1;0
"5d1f9776676cd1001580ae9c";"BRAC2_vertLL_1st300";0;79;572,999999999942;"A";1;0;NA;"A";"black";"red";"magnit";2;300;"Mac OS 10.15.5";"Safari 13.1.1";"1440x837";1;0;0;0
"5d1f9776676cd1001580ae9c";"BRAC2_vertLL_1st300";0;80;573;"A";1;0;NA;"A";"black";"red";"parity";4;300;"Mac OS 10.15.5";"Safari 13.1.1";"1440x837";1;0;0;0
"5d1f9776676cd1001580ae9c";"BRAC2_vertLL_1st300";0;81;451,000000000058;"A";1;0;NA;"A";"black";"red";"magnit";1;300;"Mac OS 10.15.5";"Safari 13.1.1";"1440x837";1;0;0;0
"5d1f9776676cd1001580ae9c";"BRAC2_vertLL_1st300";0;82;419;"L";1;0;NA;"L";"black";"blue";"magnit";6;300;"Mac OS 10.15.5";"Safari 13.1.1";"1440x837";0;1;1;0
"5d1f9776676cd1001580ae9c";"BRAC2_vertLL_1st300";0;83;388;"A";1;0;NA;"A";"black";"red";"magnit";1;300;"Mac OS 10.15.5";"Safari 13.1.1";"1440x837";0;1;1;0
"5d1f9776676cd1001580ae9c";"BRAC2_vertLL_1st300";0;84;457;"A";1;0;NA;"A";"black";"red";"parity";8;300;"Mac OS 10.15.5";"Safari 13.1.1";"1440x837";1;0;0;0
"5d1f9776676cd1001580ae9c";"BRAC2_vertLL_1st300";0;85;440;"L";1;0;NA;"L";"black";"red";"magnit";9;300;"Mac OS 10.15.5";"Safari 13.1.1";"1440x837";1;1;0;0
"5d1f9776676cd1001580ae9c";"BRAC2_vertLL_1st300";0;86;430;"L";1;0;NA;"L";"black";"red";"magnit";6;300;"Mac OS 10.15.5";"Safari 13.1.1";"1440x837";0;0;0;0
"5d1f9776676cd1001580ae9c";"BRAC2_vertLL_1st300";0;87;393;"A";1;0;NA;"A";"black";"blue";"magnit";3;300;"Mac OS 10.15.5";"Safari 13.1.1";"1440x837";0;1;1;0
"5d1f9776676cd1001580ae9c";"BRAC2_vertLL_1st300";0;88;440;"L";1;0;NA;"L";"black";"blue";"magnit";7;300;"Mac OS 10.15.5";"Safari 13.1.1";"1440x837";0;1;0;0
"5d1f9776676cd1001580ae9c";"BRAC2_vertLL_1st300";0;89;486;"L";1;0;NA;"L";"black";"blue";"magnit";9;300;"Mac OS 10.15.5";"Safari 13.1.1";"1440x837";0;0;0;0
"5d1f9776676cd1001580ae9c";"BRAC2_vertLL_1st300";0;90;544;"L";1;0;NA;"L";"black";"red";"parity";3;300;"Mac OS 10.15.5";"Safari 13.1.1";"1440x837";1;0;1;0
"5d1f9776676cd1001580ae9c";"BRAC2_vertLL_1st300";0;91;435;"A";1;0;NA;"A";"black";"blue";"parity";6;300;"Mac OS 10.15.5";"Safari 13.1.1";"1440x837";0;1;1;0
"5d1f9776676cd1001580ae9c";"BRAC2_vertLL_1st300";0;92;547;"L";1;0;NA;"L";"black";"red";"magnit";7;300;"Mac OS 10.15.5";"Safari 13.1.1";"1440x837";1;1;1;0
"5d1f9776676cd1001580ae9c";"BRAC2_vertLL_1st300";0;93;493;"A";1;0;NA;"A";"black";"blue";"parity";2;300;"Mac OS 10.15.5";"Safari 13.1.1";"1440x837";1;1;1;0
"5d1f9776676cd1001580ae9c";"BRAC2_vertLL_1st300";0;94;564;"A";1;0;NA;"A";"black";"red";"magnit";4;300;"Mac OS 10.15.5";"Safari 13.1.1";"1440x837";1;0;1;0
"5d1f9776676cd1001580ae9c";"BRAC2_vertLL_1st300";0;95;474;"L";1;0;NA;"L";"black";"blue";"magnit";7;300;"Mac OS 10.15.5";"Safari 13.1.1";"1440x837";0;1;1;0
"5d1f9776676cd1001580ae9c";"BRAC2_vertLL_1st300";1;0;504,000000000058;"A";1;0;NA;"A";"black";"blue";"parity";2;0;"Mac OS 10.15.5";"Safari 13.1.1";"1440x837";99;99;99;99
"5d1f9776676cd1001580ae9c";"BRAC2_vertLL_1st300";1;1;559;"A";1;0;NA;"A";"black";"red";"parity";8;0;"Mac OS 10.15.5";"Safari 13.1.1";"1440x837";0;0;1;0
"5d1f9776676cd1001580ae9c";"BRAC2_vertLL_1st300";1;2;455;"A";1;0;NA;"A";"black";"blue";"parity";4;0;"Mac OS 10.15.5";"Safari 13.1.1";"1440x837";0;0;1;0
"5d1f9776676cd1001580ae9c";"BRAC2_vertLL_1st300";1;3;529;"L";1;0;NA;"L";"black";"blue";"magnit";6;0;"Mac OS 10.15.5";"Safari 13.1.1";"1440x837";1;1;0;0
"5d1f9776676cd1001580ae9c";"BRAC2_vertLL_1st300";1;4;474;"A";1;0;NA;"A";"black";"blue";"parity";2;0;"Mac OS 10.15.5";"Safari 13.1.1";"1440x837";1;1;0;0
"5d1f9776676cd1001580ae9c";"BRAC2_vertLL_1st300";1;5;488;"A";1;0;NA;"A";"black";"red";"magnit";4;0;"Mac OS 10.15.5";"Safari 13.1.1";"1440x837";1;0;1;0
"5d1f9776676cd1001580ae9c";"BRAC2_vertLL_1st300";1;6;439;"A";1;0;NA;"A";"black";"red";"parity";8;0;"Mac OS 10.15.5";"Safari 13.1.1";"1440x837";1;0;0;0
"5d1f9776676cd1001580ae9c";"BRAC2_vertLL_1st300";1;7;404;"A";1;0;NA;"A";"black";"red";"magnit";1;0;"Mac OS 10.15.5";"Safari 13.1.1";"1440x837";1;0;0;0
"5d1f9776676cd1001580ae9c";"BRAC2_vertLL_1st300";1;8;413;"L";1;0;NA;"L";"black";"blue";"parity";7;0;"Mac OS 10.15.5";"Safari 13.1.1";"1440x837";1;1;1;0
"5d1f9776676cd1001580ae9c";"BRAC2_vertLL_1st300";1;9;906,000000000058;"A";1;1;NA;"L";"black";"blue";"parity";1;0;"Mac OS 10.15.5";"Safari 13.1.1";"1440x837";0;0;0;0
"5d1f9776676cd1001580ae9c";"BRAC2_vertLL_1st300";1;10;819;"L";1;0;NA;"L";"black";"red";"parity";7;0;"Mac OS 10.15.5";"Safari 13.1.1";"1440x837";0;0;1;1
"5d1f9776676cd1001580ae9c";"BRAC2_vertLL_1st300";1;11;1264;"L";1;0;NA;"L";"black";"blue";"magnit";8;0;"Mac OS 10.15.5";"Safari 13.1.1";"1440x837";1;0;1;0
"5d1f9776676cd1001580ae9c";"BRAC2_vertLL_1st300";1;12;484;"A";1;0;NA;"A";"black";"blue";"parity";6;0;"Mac OS 10.15.5";"Safari 13.1.1";"1440x837";1;1;0;0
"5d1f9776676cd1001580ae9c";"BRAC2_vertLL_1st300";1;13;1099;"L";1;0;NA;"L";"black";"blue";"parity";9;0;"Mac OS 10.15.5";"Safari 13.1.1";"1440x837";0;1;0;0
"5d1f9776676cd1001580ae9c";"BRAC2_vertLL_1st300";1;14;1007;"L";1;0;NA;"L";"black";"blue";"magnit";6;0;"Mac OS 10.15.5";"Safari 13.1.1";"1440x837";1;0;0;0
"5d1f9776676cd1001580ae9c";"BRAC2_vertLL_1st300";1;15;457;"A";1;0;NA;"A";"black";"red";"parity";2;0;"Mac OS 10.15.5";"Safari 13.1.1";"1440x837";1;1;1;0
"5d1f9776676cd1001580ae9c";"BRAC2_vertLL_1st300";1;16;483;"L";1;0;NA;"L";"black";"blue";"parity";3;0;"Mac OS 10.15.5";"Safari 13.1.1";"1440x837";0;1;1;0
"5d1f9776676cd1001580ae9c";"BRAC2_vertLL_1st300";1;17;711;"A";1;0;NA;"A";"black";"blue";"magnit";4;0;"Mac OS 10.15.5";"Safari 13.1.1";"1440x837";1;1;0;0
"5d1f9776676cd1001580ae9c";"BRAC2_vertLL_1st300";1;18;441,999999999942;"A";1;0;NA;"A";"black";"blue";"magnit";1;0;"Mac OS 10.15.5";"Safari 13.1.1";"1440x837";0;0;0;0
"5d1f9776676cd1001580ae9c";"BRAC2_vertLL_1st300";1;19;458;"A";1;0;NA;"A";"black";"red";"parity";2;0;"Mac OS 10.15.5";"Safari 13.1.1";"1440x837";1;0;1;0
"5d1f9776676cd1001580ae9c";"BRAC2_vertLL_1st300";1;20;507,000000000058;"L";1;0;NA;"L";"black";"red";"magnit";8;0;"Mac OS 10.15.5";"Safari 13.1.1";"1440x837";1;1;0;0
"5d1f9776676cd1001580ae9c";"BRAC2_vertLL_1st300";1;21;505;"A";1;0;NA;"A";"black";"red";"magnit";2;0;"Mac OS 10.15.5";"Safari 13.1.1";"1440x837";0;1;0;0
"5d1f9776676cd1001580ae9c";"BRAC2_vertLL_1st300";1;22;445;"A";1;0;NA;"A";"black";"blue";"magnit";3;0;"Mac OS 10.15.5";"Safari 13.1.1";"1440x837";0;0;1;0
"5d1f9776676cd1001580ae9c";"BRAC2_vertLL_1st300";1;23;478;"L";1;0;NA;"L";"black";"red";"magnit";8;0;"Mac OS 10.15.5";"Safari 13.1.1";"1440x837";0;1;1;0
"5d1f9776676cd1001580ae9c";"BRAC2_vertLL_1st300";1;24;441;"L";1;0;NA;"L";"black";"blue";"magnit";9;0;"Mac OS 10.15.5";"Safari 13.1.1";"1440x837";0;0;1;0
"5d1f9776676cd1001580ae9c";"BRAC2_vertLL_1st300";1;25;501;"A";1;0;NA;"A";"black";"blue";"parity";4;0;"Mac OS 10.15.5";"Safari 13.1.1";"1440x837";1;1;0;0
"5d1f9776676cd1001580ae9c";"BRAC2_vertLL_1st300";1;26;477;"A";1;0;NA;"A";"black";"blue";"magnit";1;0;"Mac OS 10.15.5";"Safari 13.1.1";"1440x837";1;0;0;0
"5d1f9776676cd1001580ae9c";"BRAC2_vertLL_1st300";1;27;466,999999999942;"L";1;0;NA;"L";"black";"red";"magnit";8;0;"Mac OS 10.15.5";"Safari 13.1.1";"1440x837";0;1;1;0
"5d1f9776676cd1001580ae9c";"BRAC2_vertLL_1st300";1;28;498;"A";1;0;NA;"A";"black";"red";"magnit";4;0;"Mac OS 10.15.5";"Safari 13.1.1";"1440x837";0;1;0;0
"5d1f9776676cd1001580ae9c";"BRAC2_vertLL_1st300";1;29;390,999999999942;"L";1;0;NA;"L";"black";"blue";"magnit";8;0;"Mac OS 10.15.5";"Safari 13.1.1";"1440x837";0;1;1;0
"5d1f9776676cd1001580ae9c";"BRAC2_vertLL_1st300";1;30;515;"A";1;0;NA;"A";"black";"red";"magnit";4;0;"Mac OS 10.15.5";"Safari 13.1.1";"1440x837";0;1;1;0
"5d1f9776676cd1001580ae9c";"BRAC2_vertLL_1st300";1;31;440;"A";1;0;NA;"A";"black";"blue";"magnit";1;0;"Mac OS 10.15.5";"Safari 13.1.1";"1440x837";0;0;1;0
"5d1f9776676cd1001580ae9c";"BRAC2_vertLL_1st300";1;32;498,000000000058;"A";1;0;NA;"A";"black";"red";"parity";4;0;"Mac OS 10.15.5";"Safari 13.1.1";"1440x837";1;0;1;0
"5d1f9776676cd1001580ae9c";"BRAC2_vertLL_1st300";1;33;424;"L";1;0;NA;"L";"black";"red";"parity";9;0;"Mac OS 10.15.5";"Safari 13.1.1";"1440x837";0;1;0;0
"5d1f9776676cd1001580ae9c";"BRAC2_vertLL_1st300";1;34;625,999999999942;"L";1;0;NA;"L";"black";"red";"parity";1;0;"Mac OS 10.15.5";"Safari 13.1.1";"1440x837";0;0;0;0
"5d1f9776676cd1001580ae9c";"BRAC2_vertLL_1st300";1;35;459;"L";1;0;NA;"L";"black";"red";"parity";7;0;"Mac OS 10.15.5";"Safari 13.1.1";"1440x837";0;0;0;0
"5d1f9776676cd1001580ae9c";"BRAC2_vertLL_1st300";1;36;585;"A";1;0;NA;"A";"black";"blue";"parity";6;0;"Mac OS 10.15.5";"Safari 13.1.1";"1440x837";0;1;1;0
"5d1f9776676cd1001580ae9c";"BRAC2_vertLL_1st300";1;37;591;"L";1;0;NA;"L";"black";"red";"parity";1;0;"Mac OS 10.15.5";"Safari 13.1.1";"1440x837";0;1;1;0
"5d1f9776676cd1001580ae9c";"BRAC2_vertLL_1st300";1;38;499;"L";1;0;NA;"L";"black";"red";"magnit";7;0;"Mac OS 10.15.5";"Safari 13.1.1";"1440x837";1;0;0;0
"5d1f9776676cd1001580ae9c";"BRAC2_vertLL_1st300";1;39;586;"L";1;0;NA;"L";"black";"blue";"parity";1;0;"Mac OS 10.15.5";"Safari 13.1.1";"1440x837";1;0;1;0
"5d1f9776676cd1001580ae9c";"BRAC2_vertLL_1st300";1;40;445;"L";1;0;NA;"L";"black";"blue";"parity";7;0;"Mac OS 10.15.5";"Safari 13.1.1";"1440x837";0;0;0;0
"5d1f9776676cd1001580ae9c";"BRAC2_vertLL_1st300";1;41;587;"A";1;0;NA;"A";"black";"red";"magnit";2;0;"Mac OS 10.15.5";"Safari 13.1.1";"1440x837";1;1;1;0
"5d1f9776676cd1001580ae9c";"BRAC2_vertLL_1st300";1;42;588;"L";1;0;NA;"L";"black";"blue";"magnit";9;0;"Mac OS 10.15.5";"Safari 13.1.1";"1440x837";0;1;1;0
"5d1f9776676cd1001580ae9c";"BRAC2_vertLL_1st300";1;43;435;"L";1;0;NA;"L";"black";"blue";"parity";7;0;"Mac OS 10.15.5";"Safari 13.1.1";"1440x837";1;0;0;0
"5d1f9776676cd1001580ae9c";"BRAC2_vertLL_1st300";1;44;472,999999999942;"A";1;0;NA;"A";"black";"red";"magnit";3;0;"Mac OS 10.15.5";"Safari 13.1.1";"1440x837";1;1;1;0
"5d1f9776676cd1001580ae9c";"BRAC2_vertLL_1st300";1;45;413,000000000058;"L";1;0;NA;"L";"black";"red";"magnit";9;0;"Mac OS 10.15.5";"Safari 13.1.1";"1440x837";0;1;0;0
"5d1f9776676cd1001580ae9c";"BRAC2_vertLL_1st300";1;46;455;"L";1;0;NA;"L";"black";"blue";"magnit";8;0;"Mac OS 10.15.5";"Safari 13.1.1";"1440x837";0;0;1;0
"5d1f9776676cd1001580ae9c";"BRAC2_vertLL_1st300";1;47;552;"A";1;0;NA;"A";"black";"blue";"magnit";2;0;"Mac OS 10.15.5";"Safari 13.1.1";"1440x837";0;1;0;0
"5d1f9776676cd1001580ae9c";"BRAC2_vertLL_1st300";1;48;466,999999999942;"A";1;0;NA;"A";"black";"red";"magnit";3;0;"Mac OS 10.15.5";"Safari 13.1.1";"1440x837";0;0;1;0
"5d1f9776676cd1001580ae9c";"BRAC2_vertLL_1st300";1;49;522;"L";1;0;NA;"L";"black";"red";"parity";9;0;"Mac OS 10.15.5";"Safari 13.1.1";"1440x837";1;1;0;0
"5d1f9776676cd1001580ae9c";"BRAC2_vertLL_1st300";1;50;461,000000000058;"L";1;0;NA;"L";"black";"red";"magnit";6;0;"Mac OS 10.15.5";"Safari 13.1.1";"1440x837";1;0;0;0
"5d1f9776676cd1001580ae9c";"BRAC2_vertLL_1st300";1;51;685;"L";1;0;NA;"L";"black";"red";"parity";7;0;"Mac OS 10.15.5";"Safari 13.1.1";"1440x837";1;0;0;0
"5d1f9776676cd1001580ae9c";"BRAC2_vertLL_1st300";1;52;378;"A";1;0;NA;"A";"black";"blue";"parity";8;0;"Mac OS 10.15.5";"Safari 13.1.1";"1440x837";0;1;1;0
"5d1f9776676cd1001580ae9c";"BRAC2_vertLL_1st300";1;53;666;"L";1;0;NA;"L";"black";"blue";"parity";1;0;"Mac OS 10.15.5";"Safari 13.1.1";"1440x837";0;1;0;0
"5d1f9776676cd1001580ae9c";"BRAC2_vertLL_1st300";1;54;464,000000000058;"L";1;0;NA;"L";"black";"blue";"magnit";9;0;"Mac OS 10.15.5";"Safari 13.1.1";"1440x837";1;0;0;0
"5d1f9776676cd1001580ae9c";"BRAC2_vertLL_1st300";1;55;587;"A";1;0;NA;"A";"black";"blue";"parity";6;0;"Mac OS 10.15.5";"Safari 13.1.1";"1440x837";1;1;0;0
"5d1f9776676cd1001580ae9c";"BRAC2_vertLL_1st300";1;56;470,000000000058;"L";1;0;NA;"L";"black";"blue";"magnit";7;0;"Mac OS 10.15.5";"Safari 13.1.1";"1440x837";1;1;0;0
"5d1f9776676cd1001580ae9c";"BRAC2_vertLL_1st300";1;57;516,999999999942;"L";1;0;NA;"L";"black";"red";"parity";9;0;"Mac OS 10.15.5";"Safari 13.1.1";"1440x837";1;0;1;0
"5d1f9776676cd1001580ae9c";"BRAC2_vertLL_1st300";1;58;525;"A";1;0;NA;"A";"black";"red";"magnit";1;0;"Mac OS 10.15.5";"Safari 13.1.1";"1440x837";1;1;0;0
"5d1f9776676cd1001580ae9c";"BRAC2_vertLL_1st300";1;59;591;"L";1;1;NA;"A";"black";"red";"magnit";2;0;"Mac OS 10.15.5";"Safari 13.1.1";"1440x837";0;0;0;0
"5d1f9776676cd1001580ae9c";"BRAC2_vertLL_1st300";1;60;565;"L";1;0;NA;"L";"black";"blue";"magnit";7;0;"Mac OS 10.15.5";"Safari 13.1.1";"1440x837";0;1;1;1
"5d1f9776676cd1001580ae9c";"BRAC2_vertLL_1st300";1;61;572,999999999884;"L";1;0;NA;"L";"black";"red";"parity";3;0;"Mac OS 10.15.5";"Safari 13.1.1";"1440x837";1;0;1;0
"5d1f9776676cd1001580ae9c";"BRAC2_vertLL_1st300";1;62;578;"L";1;0;NA;"L";"black";"blue";"parity";9;0;"Mac OS 10.15.5";"Safari 13.1.1";"1440x837";0;0;1;0
"5d1f9776676cd1001580ae9c";"BRAC2_vertLL_1st300";1;63;503;"A";1;0;NA;"A";"black";"red";"parity";4;0;"Mac OS 10.15.5";"Safari 13.1.1";"1440x837";0;1;1;0
"5d1f9776676cd1001580ae9c";"BRAC2_vertLL_1st300";1;64;693;"A";1;0;NA;"A";"black";"red";"parity";6;0;"Mac OS 10.15.5";"Safari 13.1.1";"1440x837";0;0;0;0
"5d1f9776676cd1001580ae9c";"BRAC2_vertLL_1st300";1;65;542;"A";1;0;NA;"A";"black";"blue";"magnit";2;0;"Mac OS 10.15.5";"Safari 13.1.1";"1440x837";1;0;1;0
"5d1f9776676cd1001580ae9c";"BRAC2_vertLL_1st300";1;66;641;"A";1;0;NA;"A";"black";"red";"magnit";3;0;"Mac OS 10.15.5";"Safari 13.1.1";"1440x837";0;0;1;0
"5d1f9776676cd1001580ae9c";"BRAC2_vertLL_1st300";1;67;689;"L";1;0;NA;"L";"black";"red";"magnit";9;0;"Mac OS 10.15.5";"Safari 13.1.1";"1440x837";0;1;0;0
"5d1f9776676cd1001580ae9c";"BRAC2_vertLL_1st300";1;68;570;"L";1;0;NA;"L";"black";"blue";"magnit";7;0;"Mac OS 10.15.5";"Safari 13.1.1";"1440x837";0;0;1;0
"5d1f9776676cd1001580ae9c";"BRAC2_vertLL_1st300";1;69;533,999999999884;"L";1;0;NA;"L";"black";"red";"parity";1;0;"Mac OS 10.15.5";"Safari 13.1.1";"1440x837";1;0;1;0
"5d1f9776676cd1001580ae9c";"BRAC2_vertLL_1st300";1;70;537;"A";1;0;NA;"A";"black";"red";"parity";8;0;"Mac OS 10.15.5";"Safari 13.1.1";"1440x837";0;1;0;0
"5d1f9776676cd1001580ae9c";"BRAC2_vertLL_1st300";1;71;513;"A";1;0;NA;"A";"black";"blue";"magnit";3;0;"Mac OS 10.15.5";"Safari 13.1.1";"1440x837";1;0;1;0
"5d1f9776676cd1001580ae9c";"BRAC2_vertLL_1st300";1;72;372;"L";1;0;NA;"L";"black";"red";"magnit";9;0;"Mac OS 10.15.5";"Safari 13.1.1";"1440x837";0;1;1;0
"5d1f9776676cd1001580ae9c";"BRAC2_vertLL_1st300";1;73;655,000000000116;"A";1;0;NA;"A";"black";"blue";"magnit";3;0;"Mac OS 10.15.5";"Safari 13.1.1";"1440x837";0;1;1;0
"5d1f9776676cd1001580ae9c";"BRAC2_vertLL_1st300";1;74;450;"A";1;0;NA;"A";"black";"blue";"parity";2;0;"Mac OS 10.15.5";"Safari 13.1.1";"1440x837";1;0;0;0
"5d1f9776676cd1001580ae9c";"BRAC2_vertLL_1st300";1;75;605;"A";1;0;NA;"A";"black";"blue";"parity";8;0;"Mac OS 10.15.5";"Safari 13.1.1";"1440x837";0;0;0;0
"5d1f9776676cd1001580ae9c";"BRAC2_vertLL_1st300";1;76;483,000000000116;"L";1;0;NA;"L";"black";"red";"parity";3;0;"Mac OS 10.15.5";"Safari 13.1.1";"1440x837";0;1;1;0
"5d1f9776676cd1001580ae9c";"BRAC2_vertLL_1st300";1;77;491,999999999884;"A";1;0;NA;"A";"black";"blue";"magnit";4;0;"Mac OS 10.15.5";"Safari 13.1.1";"1440x837";1;1;1;0
"5d1f9776676cd1001580ae9c";"BRAC2_vertLL_1st300";1;78;466;"A";1;0;NA;"A";"black";"blue";"parity";8;0;"Mac OS 10.15.5";"Safari 13.1.1";"1440x837";1;0;0;0
"5d1f9776676cd1001580ae9c";"BRAC2_vertLL_1st300";1;79;412;"L";1;0;NA;"L";"black";"red";"magnit";6;0;"Mac OS 10.15.5";"Safari 13.1.1";"1440x837";1;1;1;0
"5d1f9776676cd1001580ae9c";"BRAC2_vertLL_1st300";1;80;433,000000000116;"A";1;0;NA;"A";"black";"blue";"parity";4;0;"Mac OS 10.15.5";"Safari 13.1.1";"1440x837";1;1;1;0
"5d1f9776676cd1001580ae9c";"BRAC2_vertLL_1st300";1;81;455;"A";1;0;NA;"A";"black";"red";"parity";6;0;"Mac OS 10.15.5";"Safari 13.1.1";"1440x837";0;0;1;0
"5d1f9776676cd1001580ae9c";"BRAC2_vertLL_1st300";1;82;467;"L";1;0;NA;"L";"black";"red";"magnit";7;0;"Mac OS 10.15.5";"Safari 13.1.1";"1440x837";1;1;0;0
"5d1f9776676cd1001580ae9c";"BRAC2_vertLL_1st300";1;83;462;"L";1;0;NA;"L";"black";"blue";"parity";3;0;"Mac OS 10.15.5";"Safari 13.1.1";"1440x837";1;0;1;0
"5d1f9776676cd1001580ae9c";"BRAC2_vertLL_1st300";1;84;464;"A";1;0;NA;"A";"black";"blue";"magnit";2;0;"Mac OS 10.15.5";"Safari 13.1.1";"1440x837";1;1;0;0
"5d1f9776676cd1001580ae9c";"BRAC2_vertLL_1st300";1;85;621,999999999884;"A";1;0;NA;"A";"black";"blue";"magnit";4;0;"Mac OS 10.15.5";"Safari 13.1.1";"1440x837";0;0;0;0
"5d1f9776676cd1001580ae9c";"BRAC2_vertLL_1st300";1;86;507,000000000116;"L";1;0;NA;"L";"black";"blue";"parity";9;0;"Mac OS 10.15.5";"Safari 13.1.1";"1440x837";1;1;0;0
"5d1f9776676cd1001580ae9c";"BRAC2_vertLL_1st300";1;87;464,999999999884;"A";1;0;NA;"A";"black";"red";"parity";2;0;"Mac OS 10.15.5";"Safari 13.1.1";"1440x837";0;1;1;0
"5d1f9776676cd1001580ae9c";"BRAC2_vertLL_1st300";1;88;712,999999999884;"L";1;1;NA;"A";"black";"red";"magnit";1;0;"Mac OS 10.15.5";"Safari 13.1.1";"1440x837";1;0;0;0
"5d1f9776676cd1001580ae9c";"BRAC2_vertLL_1st300";1;89;731;"L";1;0;NA;"L";"black";"blue";"parity";3;0;"Mac OS 10.15.5";"Safari 13.1.1";"1440x837";1;1;1;1
"5d1f9776676cd1001580ae9c";"BRAC2_vertLL_1st300";1;90;1093;"L";1;0;NA;"L";"black";"red";"magnit";6;0;"Mac OS 10.15.5";"Safari 13.1.1";"1440x837";1;0;1;0
"5d1f9776676cd1001580ae9c";"BRAC2_vertLL_1st300";1;91;532,999999999884;"A";1;0;NA;"A";"black";"red";"parity";4;0;"Mac OS 10.15.5";"Safari 13.1.1";"1440x837";1;1;0;0
"5d1f9776676cd1001580ae9c";"BRAC2_vertLL_1st300";1;92;547;"A";1;0;NA;"A";"black";"red";"parity";6;0;"Mac OS 10.15.5";"Safari 13.1.1";"1440x837";0;0;0;0
"5d1f9776676cd1001580ae9c";"BRAC2_vertLL_1st300";1;93;455;"L";1;0;NA;"L";"black";"red";"parity";3;0;"Mac OS 10.15.5";"Safari 13.1.1";"1440x837";0;1;0;0
"5d1f9776676cd1001580ae9c";"BRAC2_vertLL_1st300";1;94;539;"L";1;0;NA;"L";"black";"blue";"magnit";6;0;"Mac OS 10.15.5";"Safari 13.1.1";"1440x837";1;0;1;0
"5d1f9776676cd1001580ae9c";"BRAC2_vertLL_1st300";1;95;531;"L";1;0;NA;"L";"black";"red";"magnit";7;0;"Mac OS 10.15.5";"Safari 13.1.1";"1440x837";0;0;1;0
"5d1f9776676cd1001580ae9c";"BRAC2_vertLL_1st300";2;0;463;"A";1;0;NA;"A";"black";"blue";"parity";8;300;"Mac OS 10.15.5";"Safari 13.1.1";"1440x837";99;99;99;99
"5d1f9776676cd1001580ae9c";"BRAC2_vertLL_1st300";2;1;455;"A";1;0;NA;"A";"black";"red";"parity";2;300;"Mac OS 10.15.5";"Safari 13.1.1";"1440x837";0;0;1;0
"5d1f9776676cd1001580ae9c";"BRAC2_vertLL_1st300";2;2;484;"L";1;0;NA;"L";"black";"red";"parity";7;300;"Mac OS 10.15.5";"Safari 13.1.1";"1440x837";0;1;0;0
"5d1f9776676cd1001580ae9c";"BRAC2_vertLL_1st300";2;3;547;"A";1;0;NA;"A";"black";"blue";"magnit";2;300;"Mac OS 10.15.5";"Safari 13.1.1";"1440x837";1;1;1;0
"5d1f9776676cd1001580ae9c";"BRAC2_vertLL_1st300";2;4;620;"A";1;0;NA;"A";"black";"red";"magnit";3;300;"Mac OS 10.15.5";"Safari 13.1.1";"1440x837";0;0;1;0
"5d1f9776676cd1001580ae9c";"BRAC2_vertLL_1st300";2;5;690;"A";1;0;NA;"A";"black";"red";"parity";8;300;"Mac OS 10.15.5";"Safari 13.1.1";"1440x837";1;0;0;0
"5d1f9776676cd1001580ae9c";"BRAC2_vertLL_1st300";2;6;418;"L";1;0;NA;"L";"black";"blue";"parity";7;300;"Mac OS 10.15.5";"Safari 13.1.1";"1440x837";0;1;1;0
"5d1f9776676cd1001580ae9c";"BRAC2_vertLL_1st300";2;7;559;"L";1;0;NA;"L";"black";"blue";"parity";9;300;"Mac OS 10.15.5";"Safari 13.1.1";"1440x837";0;0;0;0
"5d1f9776676cd1001580ae9c";"BRAC2_vertLL_1st300";2;8;531;"A";1;0;NA;"A";"black";"blue";"magnit";4;300;"Mac OS 10.15.5";"Safari 13.1.1";"1440x837";1;1;0;0
"5d1f9776676cd1001580ae9c";"BRAC2_vertLL_1st300";2;9;753;"L";1;0;NA;"L";"black";"blue";"parity";1;300;"Mac OS 10.15.5";"Safari 13.1.1";"1440x837";1;1;0;0
"5d1f9776676cd1001580ae9c";"BRAC2_vertLL_1st300";2;10;442;"A";1;0;NA;"A";"black";"blue";"parity";6;300;"Mac OS 10.15.5";"Safari 13.1.1";"1440x837";0;1;0;0
"5d1f9776676cd1001580ae9c";"BRAC2_vertLL_1st300";2;11;412;"L";1;0;NA;"L";"black";"blue";"parity";1;300;"Mac OS 10.15.5";"Safari 13.1.1";"1440x837";0;1;0;0
"5d1f9776676cd1001580ae9c";"BRAC2_vertLL_1st300";2;12;500;"L";1;0;NA;"L";"black";"blue";"magnit";6;300;"Mac OS 10.15.5";"Safari 13.1.1";"1440x837";1;0;0;0
"5d1f9776676cd1001580ae9c";"BRAC2_vertLL_1st300";2;13;695;"L";1;0;NA;"L";"black";"blue";"parity";3;300;"Mac OS 10.15.5";"Safari 13.1.1";"1440x837";1;0;0;0
"5d1f9776676cd1001580ae9c";"BRAC2_vertLL_1st300";2;14;878;"A";1;0;NA;"A";"black";"red";"magnit";2;300;"Mac OS 10.15.5";"Safari 13.1.1";"1440x837";1;1;1;0
"5d1f9776676cd1001580ae9c";"BRAC2_vertLL_1st300";2;15;485;"L";1;0;NA;"L";"black";"blue";"magnit";7;300;"Mac OS 10.15.5";"Safari 13.1.1";"1440x837";0;1;1;0
"5d1f9776676cd1001580ae9c";"BRAC2_vertLL_1st300";2;16;563;"A";1;0;NA;"A";"black";"red";"magnit";4;300;"Mac OS 10.15.5";"Safari 13.1.1";"1440x837";0;1;1;0
"5d1f9776676cd1001580ae9c";"BRAC2_vertLL_1st300";2;17;444;"A";1;0;NA;"A";"black";"red";"parity";6;300;"Mac OS 10.15.5";"Safari 13.1.1";"1440x837";1;0;0;0
"5d1f9776676cd1001580ae9c";"BRAC2_vertLL_1st300";2;18;494;"A";1;0;NA;"A";"black";"red";"magnit";2;300;"Mac OS 10.15.5";"Safari 13.1.1";"1440x837";1;0;0;0
"5d1f9776676cd1001580ae9c";"BRAC2_vertLL_1st300";2;19;467,999999999884;"A";1;0;NA;"A";"black";"red";"magnit";3;300;"Mac OS 10.15.5";"Safari 13.1.1";"1440x837";0;0;0;0
"5d1f9776676cd1001580ae9c";"BRAC2_vertLL_1st300";2;20;426;"A";1;0;NA;"A";"black";"red";"magnit";1;300;"Mac OS 10.15.5";"Safari 13.1.1";"1440x837";0;0;0;0
"5d1f9776676cd1001580ae9c";"BRAC2_vertLL_1st300";2;21;485;"A";1;0;NA;"A";"black";"blue";"magnit";3;300;"Mac OS 10.15.5";"Safari 13.1.1";"1440x837";0;0;1;0
"5d1f9776676cd1001580ae9c";"BRAC2_vertLL_1st300";2;22;549;"A";1;0;NA;"A";"black";"blue";"parity";2;300;"Mac OS 10.15.5";"Safari 13.1.1";"1440x837";1;0;0;0
"5d1f9776676cd1001580ae9c";"BRAC2_vertLL_1st300";2;23;539;"A";1;0;NA;"A";"black";"blue";"magnit";4;300;"Mac OS 10.15.5";"Safari 13.1.1";"1440x837";1;0;0;0
"5d1f9776676cd1001580ae9c";"BRAC2_vertLL_1st300";2;24;511;"L";1;0;NA;"L";"black";"blue";"magnit";8;300;"Mac OS 10.15.5";"Safari 13.1.1";"1440x837";0;1;0;0
"5d1f9776676cd1001580ae9c";"BRAC2_vertLL_1st300";2;25;561;"L";1;0;NA;"L";"black";"blue";"parity";1;300;"Mac OS 10.15.5";"Safari 13.1.1";"1440x837";1;0;0;0
"5d1f9776676cd1001580ae9c";"BRAC2_vertLL_1st300";2;26;510;"L";1;0;NA;"L";"black";"red";"magnit";8;300;"Mac OS 10.15.5";"Safari 13.1.1";"1440x837";1;0;1;0
"5d1f9776676cd1001580ae9c";"BRAC2_vertLL_1st300";2;27;545;"L";1;0;NA;"L";"black";"blue";"parity";9;300;"Mac OS 10.15.5";"Safari 13.1.1";"1440x837";1;0;1;0
"5d1f9776676cd1001580ae9c";"BRAC2_vertLL_1st300";2;28;454;"A";1;0;NA;"A";"black";"blue";"parity";6;300;"Mac OS 10.15.5";"Safari 13.1.1";"1440x837";0;1;0;0
"5d1f9776676cd1001580ae9c";"BRAC2_vertLL_1st300";2;29;493;"A";1;0;NA;"A";"black";"red";"parity";4;300;"Mac OS 10.15.5";"Safari 13.1.1";"1440x837";0;0;1;0
