"";"pp";"counterbalance";"blockNum";"trialNum";"rt";"Response";"Attempt";"error";"Timed.Out";"ANSWER";"cuecolor";"framecolor";"task";"stimulus";"cocoa";"task_R";"ANSWER_R";"framecolor_R";"error_R"
"76";"5d1cfc4ee950480015366f7b";"BRAC2_horiLL_1st0";0;0;1768,24999999371;"A";1;1;NA;"L";"black";"red";"parity";1;0;99;99;99;99
"80";"5d1cfc4ee950480015366f7b";"BRAC2_horiLL_1st0";0;1;765,330000023823;"L";1;0;NA;"L";"black";"blue";"magnit";8;0;1;0;1;1
"84";"5d1cfc4ee950480015366f7b";"BRAC2_horiLL_1st0";0;2;1151,3949999935;"A";1;0;NA;"A";"black";"red";"magnit";3;0;0;1;1;0
"88";"5d1cfc4ee950480015366f7b";"BRAC2_horiLL_1st0";0;3;169,079999992391;"L";1;0;NA;"L";"black";"blue";"magnit";6;0;0;1;1;0
"92";"5d1cfc4ee950480015366f7b";"BRAC2_horiLL_1st0";0;4;520,770000002813;"A";1;0;NA;"A";"black";"red";"magnit";1;0;0;1;1;0
"96";"5d1cfc4ee950480015366f7b";"BRAC2_horiLL_1st0";0;5;290,29500001343;"L";1;0;NA;"L";"black";"red";"parity";7;0;1;1;0;0
"100";"5d1cfc4ee950480015366f7b";"BRAC2_horiLL_1st0";0;6;529,464999999618;"A";1;0;NA;"A";"black";"blue";"magnit";4;0;1;1;1;0
"104";"5d1cfc4ee950480015366f7b";"BRAC2_horiLL_1st0";0;7;676,365000021178;"A";1;0;NA;"A";"black";"red";"magnit";1;0;0;0;1;0
"108";"5d1cfc4ee950480015366f7b";"BRAC2_horiLL_1st0";0;8;484,230000001844;"A";1;0;NA;"A";"black";"red";"parity";4;0;1;0;0;0
"112";"5d1cfc4ee950480015366f7b";"BRAC2_horiLL_1st0";0;9;432,06999998074;"L";1;0;NA;"L";"black";"red";"magnit";6;0;1;1;0;0
"116";"5d1cfc4ee950480015366f7b";"BRAC2_horiLL_1st0";0;10;881,705000007059;"A";1;0;NA;"A";"black";"blue";"magnit";1;0;0;1;1;0
"120";"5d1cfc4ee950480015366f7b";"BRAC2_horiLL_1st0";0;11;556,264999991981;"L";1;0;NA;"L";"black";"blue";"magnit";7;0;0;1;0;0
"124";"5d1cfc4ee950480015366f7b";"BRAC2_horiLL_1st0";0;12;397,67999999458;"A";1;0;NA;"A";"black";"blue";"parity";8;0;1;1;0;0
"128";"5d1cfc4ee950480015366f7b";"BRAC2_horiLL_1st0";0;13;771,314999990864;"L";1;0;NA;"L";"black";"red";"magnit";6;0;1;1;1;0
"132";"5d1cfc4ee950480015366f7b";"BRAC2_horiLL_1st0";0;14;737,649999995483;"A";1;0;NA;"A";"black";"red";"parity";8;0;1;1;0;0
"136";"5d1cfc4ee950480015366f7b";"BRAC2_horiLL_1st0";0;15;804,284999991069;"A";1;0;NA;"A";"black";"blue";"magnit";4;0;1;0;1;0
"140";"5d1cfc4ee950480015366f7b";"BRAC2_horiLL_1st0";0;16;477,125000004889;"L";1;1;NA;"A";"black";"blue";"parity";6;0;1;0;0;0
"144";"5d1cfc4ee950480015366f7b";"BRAC2_horiLL_1st0";0;17;883,104999986244;"L";1;1;NA;"A";"black";"red";"parity";4;0;0;0;1;1
"148";"5d1cfc4ee950480015366f7b";"BRAC2_horiLL_1st0";0;18;565,180000005057;"L";1;1;NA;"A";"black";"red";"parity";8;0;0;0;0;1
"152";"5d1cfc4ee950480015366f7b";"BRAC2_horiLL_1st0";0;19;620,855000015581;"A";1;0;NA;"A";"black";"blue";"parity";4;0;0;0;1;1
"156";"5d1cfc4ee950480015366f7b";"BRAC2_horiLL_1st0";0;20;475,050000008196;"A";1;1;NA;"L";"black";"blue";"parity";3;0;0;1;0;0
"160";"5d1cfc4ee950480015366f7b";"BRAC2_horiLL_1st0";0;21;348,754999984521;"L";1;1;NA;"A";"black";"red";"parity";2;0;0;1;1;1
"164";"5d1cfc4ee950480015366f7b";"BRAC2_horiLL_1st0";0;22;538,510000013048;"A";1;1;NA;"L";"black";"blue";"parity";7;0;0;1;1;1
"168";"5d1cfc4ee950480015366f7b";"BRAC2_horiLL_1st0";0;23;411,619999998948;"A";1;1;NA;"L";"black";"red";"parity";3;0;0;0;1;1
"172";"5d1cfc4ee950480015366f7b";"BRAC2_horiLL_1st0";0;24;455,314999999246;"A";1;0;NA;"A";"black";"blue";"magnit";2;0;1;1;1;1
"176";"5d1cfc4ee950480015366f7b";"BRAC2_horiLL_1st0";0;25;432,86500000977;"L";1;1;NA;"A";"black";"blue";"parity";8;0;1;0;0;0
"180";"5d1cfc4ee950480015366f7b";"BRAC2_horiLL_1st0";0;26;538,695000024745;"A";1;0;NA;"A";"black";"blue";"parity";2;0;0;0;0;1
"184";"5d1cfc4ee950480015366f7b";"BRAC2_horiLL_1st0";0;27;490,049999993062;"L";1;0;NA;"L";"black";"red";"magnit";7;0;1;1;1;0
"188";"5d1cfc4ee950480015366f7b";"BRAC2_horiLL_1st0";0;28;524,479999992764;"A";1;0;NA;"A";"black";"blue";"magnit";2;0;0;1;1;0
"192";"5d1cfc4ee950480015366f7b";"BRAC2_horiLL_1st0";0;29;493,965000001481;"L";1;0;NA;"L";"black";"red";"magnit";7;0;0;1;1;0
"196";"5d1cfc4ee950480015366f7b";"BRAC2_horiLL_1st0";0;30;469,645000004675;"A";1;0;NA;"A";"black";"red";"magnit";2;0;0;1;0;0
"200";"5d1cfc4ee950480015366f7b";"BRAC2_horiLL_1st0";0;31;322,924999985844;"L";1;0;NA;"L";"black";"red";"parity";7;0;1;1;0;0
"204";"5d1cfc4ee950480015366f7b";"BRAC2_horiLL_1st0";0;32;437,914999987697;"A";1;0;NA;"A";"black";"blue";"parity";2;0;0;1;1;0
"208";"5d1cfc4ee950480015366f7b";"BRAC2_horiLL_1st0";0;33;374,544999998761;"L";1;1;NA;"A";"black";"blue";"magnit";3;0;1;0;0;0
"212";"5d1cfc4ee950480015366f7b";"BRAC2_horiLL_1st0";0;34;977,480000001378;"A";1;1;NA;"L";"black";"red";"magnit";8;0;0;1;1;1
"216";"5d1cfc4ee950480015366f7b";"BRAC2_horiLL_1st0";0;35;495,135000004666;"L";1;0;NA;"L";"black";"blue";"parity";9;0;1;0;1;1
"220";"5d1cfc4ee950480015366f7b";"BRAC2_horiLL_1st0";0;36;388,40500000515;"A";1;1;NA;"L";"black";"blue";"parity";3;0;0;0;0;0
"224";"5d1cfc4ee950480015366f7b";"BRAC2_horiLL_1st0";0;37;491,269999998622;"L";1;1;NA;"A";"black";"blue";"parity";6;0;0;1;0;1
"228";"5d1cfc4ee950480015366f7b";"BRAC2_horiLL_1st0";0;38;593,785000004573;"A";1;0;NA;"A";"black";"blue";"magnit";1;0;1;0;0;1
"232";"5d1cfc4ee950480015366f7b";"BRAC2_horiLL_1st0";0;39;1041,4049999963;"A";1;1;NA;"L";"black";"red";"parity";7;0;1;1;1;0
"236";"5d1cfc4ee950480015366f7b";"BRAC2_horiLL_1st0";0;40;1715,80500001437;"A";1;0;NA;"A";"black";"red";"magnit";4;0;1;1;0;1
"240";"5d1cfc4ee950480015366f7b";"BRAC2_horiLL_1st0";0;41;1196,6249999823;"A";1;0;NA;"A";"black";"blue";"parity";2;0;1;0;1;0
"244";"5d1cfc4ee950480015366f7b";"BRAC2_horiLL_1st0";0;42;542,474999994738;"A";1;1;NA;"L";"black";"red";"parity";1;0;0;1;1;0
"248";"5d1cfc4ee950480015366f7b";"BRAC2_horiLL_1st0";0;43;802,635000000009;"L";1;0;NA;"L";"black";"red";"magnit";6;0;1;0;0;1
"252";"5d1cfc4ee950480015366f7b";"BRAC2_horiLL_1st0";0;44;480,999999999767;"A";1;0;NA;"A";"black";"blue";"parity";4;0;1;1;1;0
"256";"5d1cfc4ee950480015366f7b";"BRAC2_horiLL_1st0";0;45;427,460000006249;"A";1;1;NA;"L";"black";"blue";"parity";1;0;0;1;0;0
"260";"5d1cfc4ee950480015366f7b";"BRAC2_horiLL_1st0";0;46;902,035000006435;"L";1;1;NA;"A";"black";"red";"magnit";4;0;1;1;1;1
"264";"5d1cfc4ee950480015366f7b";"BRAC2_horiLL_1st0";0;47;1419,71000001649;"A";1;1;NA;"L";"black";"blue";"magnit";8;0;0;1;1;1
"268";"5d1cfc4ee950480015366f7b";"BRAC2_horiLL_1st0";0;48;812,024999991991;"A";1;1;NA;"L";"black";"blue";"magnit";6;0;0;0;0;1
"272";"5d1cfc4ee950480015366f7b";"BRAC2_horiLL_1st0";0;49;378,884999983711;"A";1;0;NA;"A";"black";"red";"magnit";4;0;0;1;1;1
"276";"5d1cfc4ee950480015366f7b";"BRAC2_horiLL_1st0";0;50;548,74500000733;"A";1;1;NA;"L";"black";"blue";"parity";1;0;1;1;1;0
"280";"5d1cfc4ee950480015366f7b";"BRAC2_horiLL_1st0";0;51;531,365000002552;"A";1;1;NA;"L";"black";"red";"parity";9;0;0;0;1;1
"284";"5d1cfc4ee950480015366f7b";"BRAC2_horiLL_1st0";0;52;743,784999998752;"L";1;0;NA;"L";"black";"blue";"parity";1;0;0;0;1;1
"288";"5d1cfc4ee950480015366f7b";"BRAC2_horiLL_1st0";0;53;1119,47499998496;"L";1;1;NA;"A";"black";"blue";"parity";6;0;0;1;0;0
"292";"5d1cfc4ee950480015366f7b";"BRAC2_horiLL_1st0";0;54;602,410000021337;"A";1;1;NA;"L";"black";"red";"magnit";9;0;1;1;1;1
"296";"5d1cfc4ee950480015366f7b";"BRAC2_horiLL_1st0";0;55;675,099999993108;"A";1;0;NA;"A";"black";"blue";"magnit";4;0;0;1;1;1
"300";"5d1cfc4ee950480015366f7b";"BRAC2_horiLL_1st0";0;56;545,484999980545;"L";1;0;NA;"L";"black";"blue";"magnit";9;0;0;1;0;0
"304";"5d1cfc4ee950480015366f7b";"BRAC2_horiLL_1st0";0;57;768,605000019306;"A";1;0;NA;"A";"black";"red";"parity";6;0;1;1;1;0
"308";"5d1cfc4ee950480015366f7b";"BRAC2_horiLL_1st0";0;58;645,170000003418;"A";1;0;NA;"A";"black";"blue";"magnit";3;0;1;0;1;0
"312";"5d1cfc4ee950480015366f7b";"BRAC2_horiLL_1st0";0;59;1452,43499998469;"A";1;1;NA;"L";"black";"blue";"parity";9;0;1;1;0;0
"316";"5d1cfc4ee950480015366f7b";"BRAC2_horiLL_1st0";0;60;676,689999992959;"L";1;0;NA;"L";"black";"blue";"magnit";7;0;1;0;0;1
"320";"5d1cfc4ee950480015366f7b";"BRAC2_horiLL_1st0";0;61;2433,35000000661;"L";1;0;NA;"L";"black";"red";"magnit";8;0;0;0;1;0
"324";"5d1cfc4ee950480015366f7b";"BRAC2_horiLL_1st0";0;62;1044,53499999363;"A";1;1;NA;"L";"black";"red";"parity";9;0;1;0;0;0
"328";"5d1cfc4ee950480015366f7b";"BRAC2_horiLL_1st0";0;63;623,480000009295;"A";1;0;NA;"A";"black";"red";"magnit";2;0;1;1;0;1
"332";"5d1cfc4ee950480015366f7b";"BRAC2_horiLL_1st0";0;64;839,260000007926;"L";1;0;NA;"L";"black";"blue";"parity";7;0;1;1;1;0
"336";"5d1cfc4ee950480015366f7b";"BRAC2_horiLL_1st0";0;65;697,899999999208;"L";1;1;NA;"A";"black";"blue";"parity";4;0;0;1;0;0
"340";"5d1cfc4ee950480015366f7b";"BRAC2_horiLL_1st0";0;66;522,25000000908;"A";1;0;NA;"A";"black";"red";"magnit";1;0;1;0;1;1
"344";"5d1cfc4ee950480015366f7b";"BRAC2_horiLL_1st0";0;67;1081,47499998449;"A";1;0;NA;"A";"black";"red";"parity";6;0;1;0;0;0
"348";"5d1cfc4ee950480015366f7b";"BRAC2_horiLL_1st0";0;68;585,359999997308;"L";1;0;NA;"L";"black";"blue";"magnit";9;0;1;1;1;0
"352";"5d1cfc4ee950480015366f7b";"BRAC2_horiLL_1st0";0;69;1775,90999999666;"L";1;1;NA;"A";"black";"red";"parity";4;0;1;1;1;0
"356";"5d1cfc4ee950480015366f7b";"BRAC2_horiLL_1st0";0;70;447,415000002366;"L";1;0;NA;"L";"black";"red";"parity";3;0;0;1;0;1
"360";"5d1cfc4ee950480015366f7b";"BRAC2_horiLL_1st0";0;71;962,975000002189;"A";1;1;NA;"L";"black";"red";"parity";9;0;0;0;0;0
"364";"5d1cfc4ee950480015366f7b";"BRAC2_horiLL_1st0";0;72;1329,67999999528;"L";1;0;NA;"L";"black";"blue";"magnit";6;0;1;0;1;1
"368";"5d1cfc4ee950480015366f7b";"BRAC2_horiLL_1st0";0;73;654,104999994161;"A";1;0;NA;"A";"black";"red";"parity";8;0;1;1;1;0
"372";"5d1cfc4ee950480015366f7b";"BRAC2_horiLL_1st0";0;74;1721,03999997489;"L";1;0;NA;"L";"black";"red";"parity";3;0;0;1;0;0
"376";"5d1cfc4ee950480015366f7b";"BRAC2_horiLL_1st0";0;75;806,710000004387;"L";1;0;NA;"L";"black";"blue";"magnit";7;0;1;0;1;0
"380";"5d1cfc4ee950480015366f7b";"BRAC2_horiLL_1st0";0;76;1587,27499999804;"L";1;0;NA;"L";"black";"red";"magnit";9;0;0;0;1;0
"384";"5d1cfc4ee950480015366f7b";"BRAC2_horiLL_1st0";0;77;521,994999988237;"A";1;0;NA;"A";"black";"blue";"magnit";2;0;0;1;1;0
"388";"5d1cfc4ee950480015366f7b";"BRAC2_horiLL_1st0";0;78;1057,69999997574;"L";1;1;NA;"A";"black";"red";"parity";6;0;1;0;1;0
"392";"5d1cfc4ee950480015366f7b";"BRAC2_horiLL_1st0";0;79;670,530000003055;"L";1;0;NA;"L";"black";"blue";"magnit";8;0;1;1;1;1
"396";"5d1cfc4ee950480015366f7b";"BRAC2_horiLL_1st0";0;80;823,269999993499;"L";1;1;NA;"A";"black";"red";"parity";2;0;1;1;1;0
"400";"5d1cfc4ee950480015366f7b";"BRAC2_horiLL_1st0";0;81;1474,77500000969;"L";1;0;NA;"L";"black";"blue";"magnit";9;0;1;1;1;1
"404";"5d1cfc4ee950480015366f7b";"BRAC2_horiLL_1st0";0;82;1197,34499999322;"L";1;0;NA;"L";"black";"blue";"parity";7;0;1;0;0;0
"408";"5d1cfc4ee950480015366f7b";"BRAC2_horiLL_1st0";0;83;904,30500000366;"A";1;0;NA;"A";"black";"blue";"magnit";3;0;1;1;0;0
"412";"5d1cfc4ee950480015366f7b";"BRAC2_horiLL_1st0";0;84;493,895000021439;"A";1;0;NA;"A";"black";"blue";"magnit";1;0;0;0;0;0
"416";"5d1cfc4ee950480015366f7b";"BRAC2_horiLL_1st0";0;85;486,284999991767;"L";1;0;NA;"L";"black";"red";"magnit";9;0;0;1;1;0
"420";"5d1cfc4ee950480015366f7b";"BRAC2_horiLL_1st0";0;86;941,544999979669;"A";1;0;NA;"A";"black";"red";"magnit";3;0;0;1;0;0
"424";"5d1cfc4ee950480015366f7b";"BRAC2_horiLL_1st0";0;87;552,954999991925;"L";1;0;NA;"L";"black";"red";"magnit";8;0;0;1;0;0
"428";"5d1cfc4ee950480015366f7b";"BRAC2_horiLL_1st0";0;88;738,604999991367;"L";1;0;NA;"L";"black";"red";"magnit";7;0;0;0;0;0
"432";"5d1cfc4ee950480015366f7b";"BRAC2_horiLL_1st0";0;89;792,994999996154;"A";1;1;NA;"L";"black";"blue";"parity";3;0;1;0;1;0
"436";"5d1cfc4ee950480015366f7b";"BRAC2_horiLL_1st0";0;90;601,764999999432;"L";1;1;NA;"A";"black";"red";"parity";2;0;0;1;1;1
"440";"5d1cfc4ee950480015366f7b";"BRAC2_horiLL_1st0";0;91;788,845000002766;"L";1;0;NA;"L";"black";"blue";"parity";9;0;0;1;1;1
"444";"5d1cfc4ee950480015366f7b";"BRAC2_horiLL_1st0";0;92;618,975000019418;"L";1;0;NA;"L";"black";"red";"parity";1;0;0;0;1;0
"448";"5d1cfc4ee950480015366f7b";"BRAC2_horiLL_1st0";0;93;757,935000001453;"A";1;0;NA;"A";"black";"blue";"parity";8;0;0;1;1;0
"452";"5d1cfc4ee950480015366f7b";"BRAC2_horiLL_1st0";0;94;759,094999986701;"A";1;0;NA;"A";"black";"red";"magnit";2;0;1;0;1;0
"456";"5d1cfc4ee950480015366f7b";"BRAC2_horiLL_1st0";0;95;805,54500001017;"A";1;0;NA;"A";"black";"red";"magnit";3;0;0;0;0;0
"461";"5d1cfc4ee950480015366f7b";"BRAC2_horiLL_1st0";1;0;1151,58499998506;"L";1;0;NA;"L";"black";"blue";"magnit";7;300;99;99;99;99
"465";"5d1cfc4ee950480015366f7b";"BRAC2_horiLL_1st0";1;1;499,569999985397;"L";1;0;NA;"L";"black";"blue";"magnit";8;300;0;0;0;0
"469";"5d1cfc4ee950480015366f7b";"BRAC2_horiLL_1st0";1;2;631,529999984195;"L";1;0;NA;"L";"black";"red";"parity";1;300;1;0;1;0
"473";"5d1cfc4ee950480015366f7b";"BRAC2_horiLL_1st0";1;3;1238,52499999339;"L";1;0;NA;"L";"black";"blue";"magnit";6;300;1;0;1;0
"477";"5d1cfc4ee950480015366f7b";"BRAC2_horiLL_1st0";1;4;748,619999998482;"A";1;0;NA;"A";"black";"red";"magnit";1;300;0;1;1;0
"481";"5d1cfc4ee950480015366f7b";"BRAC2_horiLL_1st0";1;5;2498,42499999999;NA;NA;1;1;"L";"black";"blue";"magnit";7;300;0;1;1;0
"485";"5d1cfc4ee950480015366f7b";"BRAC2_horiLL_1st0";1;6;2498,79099999997;NA;NA;1;1;"A";"black";"blue";"parity";2;300;1;1;0;1
"489";"5d1cfc4ee950480015366f7b";"BRAC2_horiLL_1st0";1;7;1106,81999998633;"A";1;1;NA;"L";"black";"blue";"parity";7;300;0;1;0;1
"493";"5d1cfc4ee950480015366f7b";"BRAC2_horiLL_1st0";1;8;2498,58900000004;NA;NA;1;1;"L";"black";"red";"parity";1;300;0;0;1;1
"497";"5d1cfc4ee950480015366f7b";"BRAC2_horiLL_1st0";1;9;1038,77499999362;"A";1;0;NA;"A";"black";"red";"parity";6;300;0;1;0;1
"501";"5d1cfc4ee950480015366f7b";"BRAC2_horiLL_1st0";1;10;1147,6149999944;"L";1;0;NA;"L";"black";"blue";"parity";7;300;0;1;1;0
"505";"5d1cfc4ee950480015366f7b";"BRAC2_horiLL_1st0";1;11;888,180000009015;"A";1;0;NA;"A";"black";"blue";"magnit";3;300;1;1;0;0
"509";"5d1cfc4ee950480015366f7b";"BRAC2_horiLL_1st0";1;12;407,210000004852;"L";1;0;NA;"L";"black";"blue";"magnit";6;300;0;1;0;0
"513";"5d1cfc4ee950480015366f7b";"BRAC2_horiLL_1st0";1;13;661,045000015292;"A";1;0;NA;"A";"black";"blue";"parity";8;300;1;1;0;0
"517";"5d1cfc4ee950480015366f7b";"BRAC2_horiLL_1st0";1;14;842,7049999882;"L";1;0;NA;"L";"black";"red";"magnit";6;300;1;1;1;0
"521";"5d1cfc4ee950480015366f7b";"BRAC2_horiLL_1st0";1;15;761,824999994133;"A";1;0;NA;"A";"black";"blue";"parity";8;300;1;1;1;0
"525";"5d1cfc4ee950480015366f7b";"BRAC2_horiLL_1st0";1;16;1029,7600000049;"L";1;0;NA;"L";"black";"red";"magnit";7;300;1;1;1;0
"529";"5d1cfc4ee950480015366f7b";"BRAC2_horiLL_1st0";1;17;522,445000009611;"L";1;0;NA;"L";"black";"red";"parity";1;300;1;0;0;0
"533";"5d1cfc4ee950480015366f7b";"BRAC2_horiLL_1st0";1;18;1249,83999997494;"A";1;0;NA;"A";"black";"red";"magnit";3;300;1;1;0;0
"537";"5d1cfc4ee950480015366f7b";"BRAC2_horiLL_1st0";1;19;1291,12499998882;"L";1;0;NA;"L";"black";"red";"parity";9;300;1;1;0;0
"541";"5d1cfc4ee950480015366f7b";"BRAC2_horiLL_1st0";1;20;1014,69500001986;"A";1;0;NA;"A";"black";"red";"magnit";2;300;1;1;0;0
"545";"5d1cfc4ee950480015366f7b";"BRAC2_horiLL_1st0";1;21;1119,40500000492;"L";1;0;NA;"L";"black";"red";"magnit";9;300;0;1;0;0
"549";"5d1cfc4ee950480015366f7b";"BRAC2_horiLL_1st0";1;22;712,835000013001;"A";1;0;NA;"A";"black";"blue";"magnit";4;300;0;1;1;0
"553";"5d1cfc4ee950480015366f7b";"BRAC2_horiLL_1st0";1;23;474,765000020852;"A";1;0;NA;"A";"black";"red";"magnit";3;300;0;0;1;0
"557";"5d1cfc4ee950480015366f7b";"BRAC2_horiLL_1st0";1;24;627,810000005411;"L";1;1;NA;"A";"black";"blue";"parity";6;300;1;0;1;0
"561";"5d1cfc4ee950480015366f7b";"BRAC2_horiLL_1st0";1;25;946,110000018962;"L";1;0;NA;"L";"black";"blue";"magnit";9;300;1;1;0;1
"565";"5d1cfc4ee950480015366f7b";"BRAC2_horiLL_1st0";1;26;1424,61499999627;"A";1;0;NA;"A";"black";"blue";"magnit";4;300;0;1;0;0
"569";"5d1cfc4ee950480015366f7b";"BRAC2_horiLL_1st0";1;27;467,434999998659;"L";1;0;NA;"L";"black";"red";"magnit";9;300;0;1;1;0
"573";"5d1cfc4ee950480015366f7b";"BRAC2_horiLL_1st0";1;28;1025,28499998152;"A";1;0;NA;"A";"black";"red";"parity";6;300;1;1;0;0
"577";"5d1cfc4ee950480015366f7b";"BRAC2_horiLL_1st0";1;29;659,104999998817;"L";1;0;NA;"L";"black";"red";"magnit";7;300;1;1;0;0
"581";"5d1cfc4ee950480015366f7b";"BRAC2_horiLL_1st0";1;30;479,424999997718;"L";1;0;NA;"L";"black";"blue";"parity";3;300;1;0;1;0
"585";"5d1cfc4ee950480015366f7b";"BRAC2_horiLL_1st0";1;31;848,460000008345;"L";1;0;NA;"L";"black";"blue";"magnit";7;300;1;0;0;0
"589";"5d1cfc4ee950480015366f7b";"BRAC2_horiLL_1st0";1;32;619,324999977835;"A";1;0;NA;"A";"black";"red";"magnit";3;300;0;1;1;0
"593";"5d1cfc4ee950480015366f7b";"BRAC2_horiLL_1st0";1;33;313,569999998435;"A";1;0;NA;"A";"black";"red";"magnit";1;300;0;0;0;0
"597";"5d1cfc4ee950480015366f7b";"BRAC2_horiLL_1st0";1;34;768,960000015795;"A";1;0;NA;"A";"black";"red";"magnit";4;300;0;0;0;0
"601";"5d1cfc4ee950480015366f7b";"BRAC2_horiLL_1st0";1;35;728,889999998501;"L";1;0;NA;"L";"black";"red";"parity";3;300;1;1;0;0
"605";"5d1cfc4ee950480015366f7b";"BRAC2_horiLL_1st0";1;36;929,880000010598;"L";1;0;NA;"L";"black";"blue";"magnit";9;300;1;0;1;0
"609";"5d1cfc4ee950480015366f7b";"BRAC2_horiLL_1st0";1;37;1189,93500000215;"A";1;0;NA;"A";"black";"blue";"magnit";2;300;0;1;0;0
"613";"5d1cfc4ee950480015366f7b";"BRAC2_horiLL_1st0";1;38;857,815000024857;"A";1;0;NA;"A";"black";"red";"magnit";1;300;0;0;1;0
"617";"5d1cfc4ee950480015366f7b";"BRAC2_horiLL_1st0";1;39;520,85500000976;"A";1;0;NA;"A";"black";"red";"magnit";2;300;0;0;0;0
"621";"5d1cfc4ee950480015366f7b";"BRAC2_horiLL_1st0";1;40;752,240000001621;"L";1;0;NA;"L";"black";"blue";"parity";3;300;1;1;1;0
"625";"5d1cfc4ee950480015366f7b";"BRAC2_horiLL_1st0";1;41;608,3299999882;"L";1;0;NA;"L";"black";"red";"parity";7;300;0;0;1;0
"629";"5d1cfc4ee950480015366f7b";"BRAC2_horiLL_1st0";1;42;649,420000001555;"L";1;0;NA;"L";"black";"blue";"parity";3;300;0;0;1;0
"633";"5d1cfc4ee950480015366f7b";"BRAC2_horiLL_1st0";1;43;425,385000009555;"A";1;0;NA;"A";"black";"blue";"parity";6;300;0;1;0;0
"637";"5d1cfc4ee950480015366f7b";"BRAC2_horiLL_1st0";1;44;1055,80500001088;"A";1;0;NA;"A";"black";"blue";"magnit";3;300;1;0;0;0
"641";"5d1cfc4ee950480015366f7b";"BRAC2_horiLL_1st0";1;45;1095,17000001506;"L";1;0;NA;"L";"black";"red";"parity";9;300;1;1;1;0
"645";"5d1cfc4ee950480015366f7b";"BRAC2_horiLL_1st0";1;46;924,280000006547;"L";1;0;NA;"L";"black";"blue";"magnit";8;300;1;0;1;0
"649";"5d1cfc4ee950480015366f7b";"BRAC2_horiLL_1st0";1;47;1229,71000001417;"A";1;0;NA;"A";"black";"red";"parity";4;300;1;1;1;0
"653";"5d1cfc4ee950480015366f7b";"BRAC2_horiLL_1st0";1;48;842,100000008941;"A";1;0;NA;"A";"black";"blue";"magnit";1;300;1;0;1;0
"657";"5d1cfc4ee950480015366f7b";"BRAC2_horiLL_1st0";1;49;741,399999998976;"L";1;0;NA;"L";"black";"blue";"parity";9;300;1;1;0;0
"661";"5d1cfc4ee950480015366f7b";"BRAC2_horiLL_1st0";1;50;802,239999989979;"A";1;0;NA;"A";"black";"red";"parity";2;300;0;1;1;0
"665";"5d1cfc4ee950480015366f7b";"BRAC2_horiLL_1st0";1;51;547,754999977769;"L";1;0;NA;"L";"black";"red";"parity";7;300;0;1;0;0
"669";"5d1cfc4ee950480015366f7b";"BRAC2_horiLL_1st0";1;52;518,360000016401;"L";1;0;NA;"L";"black";"blue";"parity";9;300;0;0;1;0
"673";"5d1cfc4ee950480015366f7b";"BRAC2_horiLL_1st0";1;53;760,29499998549;"A";1;0;NA;"A";"black";"blue";"parity";4;300;0;1;0;0
"677";"5d1cfc4ee950480015366f7b";"BRAC2_horiLL_1st0";1;54;575,270000001183;"L";1;0;NA;"L";"black";"blue";"parity";7;300;0;1;0;0
"681";"5d1cfc4ee950480015366f7b";"BRAC2_horiLL_1st0";1;55;810,83000000217;"A";1;0;NA;"A";"black";"red";"parity";2;300;0;1;1;0
"685";"5d1cfc4ee950480015366f7b";"BRAC2_horiLL_1st0";1;56;586,470000009285;"A";1;0;NA;"A";"black";"red";"magnit";4;300;1;0;0;0
"689";"5d1cfc4ee950480015366f7b";"BRAC2_horiLL_1st0";1;57;1060,94499997562;"L";1;0;NA;"L";"black";"red";"magnit";6;300;0;1;0;0
"693";"5d1cfc4ee950480015366f7b";"BRAC2_horiLL_1st0";1;58;1240,38499998278;"A";1;0;NA;"A";"black";"blue";"parity";8;300;1;1;1;0
"697";"5d1cfc4ee950480015366f7b";"BRAC2_horiLL_1st0";1;59;621,33000002359;"A";1;0;NA;"A";"black";"blue";"parity";2;300;0;0;0;0
"701";"5d1cfc4ee950480015366f7b";"BRAC2_horiLL_1st0";1;60;982,969999982743;"L";1;1;NA;"A";"black";"blue";"magnit";3;300;1;0;0;0
"705";"5d1cfc4ee950480015366f7b";"BRAC2_horiLL_1st0";1;61;957,029999990482;"L";1;0;NA;"L";"black";"blue";"magnit";9;300;0;1;0;1
"709";"5d1cfc4ee950480015366f7b";"BRAC2_horiLL_1st0";1;62;546,75499998848;"A";1;0;NA;"A";"black";"blue";"magnit";2;300;0;1;0;0
"713";"5d1cfc4ee950480015366f7b";"BRAC2_horiLL_1st0";1;63;1232,54500000621;"L";1;0;NA;"L";"black";"red";"parity";9;300;1;1;1;0
"717";"5d1cfc4ee950480015366f7b";"BRAC2_horiLL_1st0";1;64;1043,80999997375;"A";1;0;NA;"A";"black";"red";"parity";6;300;0;1;0;0
"721";"5d1cfc4ee950480015366f7b";"BRAC2_horiLL_1st0";1;65;950,489999988349;"A";1;0;NA;"A";"black";"red";"magnit";2;300;1;0;0;0
"725";"5d1cfc4ee950480015366f7b";"BRAC2_horiLL_1st0";1;66;1306,24500001431;"A";1;0;NA;"A";"black";"blue";"magnit";1;300;0;0;1;0
"729";"5d1cfc4ee950480015366f7b";"BRAC2_horiLL_1st0";1;67;479,735000000801;"L";1;0;NA;"L";"black";"red";"parity";3;300;1;1;1;0
"733";"5d1cfc4ee950480015366f7b";"BRAC2_horiLL_1st0";1;68;1193,21999998647;"A";1;0;NA;"A";"black";"red";"parity";4;300;0;1;0;0
"737";"5d1cfc4ee950480015366f7b";"BRAC2_horiLL_1st0";1;69;595,564999995986;"L";1;0;NA;"L";"black";"red";"magnit";8;300;1;1;0;0
"741";"5d1cfc4ee950480015366f7b";"BRAC2_horiLL_1st0";1;70;965,204999985872;"A";1;0;NA;"A";"black";"blue";"parity";4;300;1;1;1;0
"745";"5d1cfc4ee950480015366f7b";"BRAC2_horiLL_1st0";1;71;371,840000007069;"L";1;0;NA;"L";"black";"red";"parity";3;300;0;1;1;0
"749";"5d1cfc4ee950480015366f7b";"BRAC2_horiLL_1st0";1;72;837,690000014845;"L";1;0;NA;"L";"black";"red";"magnit";6;300;1;0;0;0
"753";"5d1cfc4ee950480015366f7b";"BRAC2_horiLL_1st0";1;73;1667,51500000828;"A";1;0;NA;"A";"black";"red";"parity";8;300;1;1;0;0
"757";"5d1cfc4ee950480015366f7b";"BRAC2_horiLL_1st0";1;74;1230,98500000197;"L";1;0;NA;"L";"black";"blue";"parity";1;300;0;1;1;0
"761";"5d1cfc4ee950480015366f7b";"BRAC2_horiLL_1st0";1;75;590,720000007423;"L";1;0;NA;"L";"black";"red";"parity";7;300;0;0;1;0
"765";"5d1cfc4ee950480015366f7b";"BRAC2_horiLL_1st0";1;76;557,384999992792;"L";1;0;NA;"L";"black";"blue";"parity";1;300;0;0;1;0
"769";"5d1cfc4ee950480015366f7b";"BRAC2_horiLL_1st0";1;77;1626,96500000311;"L";1;0;NA;"L";"black";"red";"magnit";8;300;1;0;1;0
"773";"5d1cfc4ee950480015366f7b";"BRAC2_horiLL_1st0";1;78;975,859999976819;"A";1;1;NA;"L";"black";"blue";"parity";1;300;1;0;1;0
"777";"5d1cfc4ee950480015366f7b";"BRAC2_horiLL_1st0";1;79;728,570000006584;"A";1;0;NA;"A";"black";"red";"parity";8;300;0;1;1;1
"781";"5d1cfc4ee950480015366f7b";"BRAC2_horiLL_1st0";1;80;921,905000024708;"L";1;0;NA;"L";"black";"blue";"magnit";6;300;1;1;1;0
"785";"5d1cfc4ee950480015366f7b";"BRAC2_horiLL_1st0";1;81;622,050000005402;"A";1;0;NA;"A";"black";"blue";"magnit";1;300;0;1;0;0
"789";"5d1cfc4ee950480015366f7b";"BRAC2_horiLL_1st0";1;82;933,465000009164;"L";1;0;NA;"L";"black";"blue";"parity";9;300;1;1;0;0
"793";"5d1cfc4ee950480015366f7b";"BRAC2_horiLL_1st0";1;83;889,685000001919;"A";1;0;NA;"A";"black";"red";"parity";8;300;0;1;1;0
"797";"5d1cfc4ee950480015366f7b";"BRAC2_horiLL_1st0";1;84;1160,31999999541;"A";1;0;NA;"A";"black";"blue";"parity";4;300;0;0;1;0
"801";"5d1cfc4ee950480015366f7b";"BRAC2_horiLL_1st0";1;85;517,960000026505;"A";1;0;NA;"A";"black";"blue";"magnit";2;300;1;0;0;0
"805";"5d1cfc4ee950480015366f7b";"BRAC2_horiLL_1st0";1;86;970,91500001261;"A";1;0;NA;"A";"black";"blue";"magnit";4;300;0;0;0;0
"809";"5d1cfc4ee950480015366f7b";"BRAC2_horiLL_1st0";1;87;1198,81999999052;"A";1;0;NA;"A";"black";"blue";"parity";6;300;1;0;0;0
"813";"5d1cfc4ee950480015366f7b";"BRAC2_horiLL_1st0";1;88;468,655000004219;"L";1;0;NA;"L";"black";"red";"magnit";9;300;1;1;1;0
"817";"5d1cfc4ee950480015366f7b";"BRAC2_horiLL_1st0";1;89;1146,64500000072;"A";1;0;NA;"A";"black";"blue";"parity";2;300;1;1;1;0
"821";"5d1cfc4ee950480015366f7b";"BRAC2_horiLL_1st0";1;90;1146,03499998339;"A";1;0;NA;"A";"black";"red";"parity";4;300;0;0;1;0
"825";"5d1cfc4ee950480015366f7b";"BRAC2_horiLL_1st0";1;91;1106,07999999775;"L";1;0;NA;"L";"black";"red";"magnit";7;300;1;1;0;0
"829";"5d1cfc4ee950480015366f7b";"BRAC2_horiLL_1st0";1;92;1040,05500001949;"A";1;1;NA;"L";"black";"blue";"magnit";8;300;0;0;1;0
"833";"5d1cfc4ee950480015366f7b";"BRAC2_horiLL_1st0";1;93;738,444999995409;"A";1;0;NA;"A";"black";"red";"magnit";4;300;0;1;1;1
"837";"5d1cfc4ee950480015366f7b";"BRAC2_horiLL_1st0";1;94;974,130000016885;"L";1;0;NA;"L";"black";"red";"magnit";8;300;0;1;0;0
"841";"5d1cfc4ee950480015366f7b";"BRAC2_horiLL_1st0";1;95;577,064999990398;"A";1;0;NA;"A";"black";"red";"parity";2;300;1;1;0;0
"846";"5d1cfc4ee950480015366f7b";"BRAC2_horiLL_1st0";2;0;1586,69500000542;"L";1;0;NA;"L";"black";"blue";"parity";7;0;99;99;99;99
"850";"5d1cfc4ee950480015366f7b";"BRAC2_horiLL_1st0";2;1;1027,14500000002;"L";1;0;NA;"L";"black";"blue";"magnit";9;0;1;0;0;0
"854";"5d1cfc4ee950480015366f7b";"BRAC2_horiLL_1st0";2;2;410,765000007814;"A";1;0;NA;"A";"black";"blue";"magnit";2;0;0;1;0;0
"858";"5d1cfc4ee950480015366f7b";"BRAC2_horiLL_1st0";2;3;1048,84499998298;"L";1;0;NA;"L";"black";"red";"magnit";6;0;0;1;1;0
"862";"5d1cfc4ee950480015366f7b";"BRAC2_horiLL_1st0";2;4;629,019999993034;"L";1;0;NA;"L";"black";"blue";"parity";9;0;1;0;1;0
"866";"5d1cfc4ee950480015366f7b";"BRAC2_horiLL_1st0";2;5;507,494999998016;"A";1;0;NA;"A";"black";"red";"parity";2;0;0;1;1;0
"870";"5d1cfc4ee950480015366f7b";"BRAC2_horiLL_1st0";2;6;503,124999988358;"A";1;0;NA;"A";"black";"blue";"parity";8;0;0;0;1;0
"874";"5d1cfc4ee950480015366f7b";"BRAC2_horiLL_1st0";2;7;660,065000003669;"A";1;0;NA;"A";"black";"blue";"parity";6;0;0;0;0;0
"878";"5d1cfc4ee950480015366f7b";"BRAC2_horiLL_1st0";2;8;538,274999998976;"A";1;0;NA;"A";"black";"red";"parity";8;0;0;0;1;0
"882";"5d1cfc4ee950480015366f7b";"BRAC2_horiLL_1st0";2;9;1068,02000000607;"L";1;0;NA;"L";"black";"blue";"magnit";7;0;1;1;1;0
"886";"5d1cfc4ee950480015366f7b";"BRAC2_horiLL_1st0";2;10;635,16500001424;"L";1;1;NA;"A";"black";"red";"magnit";1;0;0;1;1;0
"890";"5d1cfc4ee950480015366f7b";"BRAC2_horiLL_1st0";2;11;1054,26000000443;"A";1;0;NA;"A";"black";"red";"magnit";4;0;0;0;0;1
"894";"5d1cfc4ee950480015366f7b";"BRAC2_horiLL_1st0";2;12;660,409999982221;"L";1;0;NA;"L";"black";"blue";"magnit";6;0;0;1;1;0
"898";"5d1cfc4ee950480015366f7b";"BRAC2_horiLL_1st0";2;13;971,454999991693;"L";1;0;NA;"L";"black";"red";"magnit";7;0;0;0;1;0
"902";"5d1cfc4ee950480015366f7b";"BRAC2_horiLL_1st0";2;14;839,98999997857;"A";1;0;NA;"A";"black";"red";"magnit";3;0;0;1;0;0
"906";"5d1cfc4ee950480015366f7b";"BRAC2_horiLL_1st0";2;15;1488,89999999665;"A";1;0;NA;"A";"black";"red";"parity";6;0;1;0;0;0
"910";"5d1cfc4ee950480015366f7b";"BRAC2_horiLL_1st0";2;16;495,420000021113;"A";1;0;NA;"A";"black";"red";"magnit";1;0;1;0;0;0
"914";"5d1cfc4ee950480015366f7b";"BRAC2_horiLL_1st0";2;17;685,28000000515;"A";1;0;NA;"A";"black";"blue";"parity";8;0;1;0;1;0
"918";"5d1cfc4ee950480015366f7b";"BRAC2_horiLL_1st0";2;18;506,870000011986;"A";1;0;NA;"A";"black";"blue";"magnit";1;0;1;0;0;0
"922";"5d1cfc4ee950480015366f7b";"BRAC2_horiLL_1st0";2;19;618,259999988368;"A";1;0;NA;"A";"black";"blue";"parity";4;0;1;0;0;0
"926";"5d1cfc4ee950480015366f7b";"BRAC2_horiLL_1st0";2;20;1377,73999999627;"A";1;0;NA;"A";"black";"blue";"magnit";2;0;1;0;0;0
"930";"5d1cfc4ee950480015366f7b";"BRAC2_horiLL_1st0";2;21;950,709999975516;"L";1;0;NA;"L";"black";"red";"parity";9;0;1;1;1;0
"934";"5d1cfc4ee950480015366f7b";"BRAC2_horiLL_1st0";2;22;330,679999984568;"A";1;0;NA;"A";"black";"blue";"parity";2;0;0;1;1;0
"938";"5d1cfc4ee950480015366f7b";"BRAC2_horiLL_1st0";2;23;552,330000005895;"A";1;0;NA;"A";"black";"blue";"magnit";1;0;1;0;0;0
"942";"5d1cfc4ee950480015366f7b";"BRAC2_horiLL_1st0";2;24;553,519999986747;"A";1;0;NA;"A";"black";"blue";"magnit";4;0;0;0;0;0
"946";"5d1cfc4ee950480015366f7b";"BRAC2_horiLL_1st0";2;25;1243,66500001634;"A";1;0;NA;"A";"black";"blue";"parity";6;0;1;0;0;0
"950";"5d1cfc4ee950480015366f7b";"BRAC2_horiLL_1st0";2;26;608,840000000782;"L";1;0;NA;"L";"black";"blue";"parity";9;0;0;1;0;0
"954";"5d1cfc4ee950480015366f7b";"BRAC2_horiLL_1st0";2;27;699,904999986757;"A";1;1;NA;"L";"black";"red";"parity";3;0;0;0;1;0
"958";"5d1cfc4ee950480015366f7b";"BRAC2_horiLL_1st0";2;28;474,340000015218;"L";1;0;NA;"L";"black";"red";"parity";9;0;0;0;0;1
"962";"5d1cfc4ee950480015366f7b";"BRAC2_horiLL_1st0";2;29;337,705000012647;"A";1;1;NA;"L";"black";"blue";"parity";3;0;0;0;1;0
"966";"5d1cfc4ee950480015366f7b";"BRAC2_horiLL_1st0";2;30;1080,38499997929;"L";1;0;NA;"L";"black";"blue";"magnit";9;0;1;0;0;1
"970";"5d1cfc4ee950480015366f7b";"BRAC2_horiLL_1st0";2;31;588,509999972302;"A";1;1;NA;"L";"black";"red";"parity";1;0;1;0;1;0
"974";"5d1cfc4ee950480015366f7b";"BRAC2_horiLL_1st0";2;32;748,170000006212;"L";1;0;NA;"L";"black";"blue";"magnit";7;0;1;0;1;1
"978";"5d1cfc4ee950480015366f7b";"BRAC2_horiLL_1st0";2;33;1004,83499999973;"L";1;0;NA;"L";"black";"blue";"parity";1;0;1;0;0;0
"982";"5d1cfc4ee950480015366f7b";"BRAC2_horiLL_1st0";2;34;778,98499998264;"L";1;0;NA;"L";"black";"red";"magnit";7;0;1;0;1;0
"986";"5d1cfc4ee950480015366f7b";"BRAC2_horiLL_1st0";2;35;1592,55499998108;"A";1;0;NA;"A";"black";"red";"parity";6;0;1;1;0;0
"990";"5d1cfc4ee950480015366f7b";"BRAC2_horiLL_1st0";2;36;528,859999991255;"A";1;0;NA;"A";"black";"red";"magnit";2;0;1;0;0;0
"994";"5d1cfc4ee950480015366f7b";"BRAC2_horiLL_1st0";2;37;2377,13000000804;"A";1;1;NA;"L";"black";"blue";"magnit";6;0;0;1;1;0
"998";"5d1cfc4ee950480015366f7b";"BRAC2_horiLL_1st0";2;38;608,5299999977;"L";1;0;NA;"L";"black";"red";"magnit";8;0;0;0;1;1
"1002";"5d1cfc4ee950480015366f7b";"BRAC2_horiLL_1st0";2;39;932,815000007395;"A";1;0;NA;"A";"black";"blue";"parity";2;0;1;1;1;0
"1006";"5d1cfc4ee950480015366f7b";"BRAC2_horiLL_1st0";2;40;480,335000000196;"L";1;0;NA;"L";"black";"red";"parity";7;0;0;1;1;0
"1010";"5d1cfc4ee950480015366f7b";"BRAC2_horiLL_1st0";2;41;869,230000011157;"L";1;0;NA;"L";"black";"red";"magnit";8;0;1;0;0;0
"1014";"5d1cfc4ee950480015366f7b";"BRAC2_horiLL_1st0";2;42;877,51500000013;"L";1;0;NA;"L";"black";"red";"parity";7;0;1;0;0;0
"1018";"5d1cfc4ee950480015366f7b";"BRAC2_horiLL_1st0";2;43;879,404999985127;"A";1;0;NA;"A";"black";"red";"parity";4;0;0;1;0;0
"1022";"5d1cfc4ee950480015366f7b";"BRAC2_horiLL_1st0";2;44;556,160000007367;"L";1;0;NA;"L";"black";"blue";"parity";9;0;0;1;1;0
"1026";"5d1cfc4ee950480015366f7b";"BRAC2_horiLL_1st0";2;45;1515,26499999454;"L";1;0;NA;"L";"black";"blue";"parity";3;0;0;0;0;0
"1030";"5d1cfc4ee950480015366f7b";"BRAC2_horiLL_1st0";2;46;1020,62999998452;"L";1;0;NA;"L";"black";"red";"parity";1;0;0;0;1;0
"1034";"5d1cfc4ee950480015366f7b";"BRAC2_horiLL_1st0";2;47;877,004999987548;"L";1;1;NA;"A";"black";"red";"magnit";4;0;1;1;0;0
"1038";"5d1cfc4ee950480015366f7b";"BRAC2_horiLL_1st0";2;48;543,135000014445;"A";1;0;NA;"A";"black";"red";"magnit";2;0;0;0;0;1
"1042";"5d1cfc4ee950480015366f7b";"BRAC2_horiLL_1st0";2;49;458,675000001676;"L";1;0;NA;"L";"black";"red";"magnit";9;0;0;1;0;0
"1046";"5d1cfc4ee950480015366f7b";"BRAC2_horiLL_1st0";2;50;1248,17999999505;"A";1;0;NA;"A";"black";"red";"parity";8;0;1;1;0;0
"1050";"5d1cfc4ee950480015366f7b";"BRAC2_horiLL_1st0";2;51;705,454999988433;"L";1;0;NA;"L";"black";"red";"magnit";9;0;1;1;0;0
"1054";"5d1cfc4ee950480015366f7b";"BRAC2_horiLL_1st0";2;52;954,339999996591;"A";1;0;NA;"A";"black";"blue";"parity";4;0;1;1;1;0
"1058";"5d1cfc4ee950480015366f7b";"BRAC2_horiLL_1st0";2;53;379,275000013877;"L";1;0;NA;"L";"black";"red";"parity";3;0;0;1;1;0
"1062";"5d1cfc4ee950480015366f7b";"BRAC2_horiLL_1st0";2;54;982,904999982566;"L";1;0;NA;"L";"black";"blue";"magnit";9;0;1;0;1;0
"1066";"5d1cfc4ee950480015366f7b";"BRAC2_horiLL_1st0";2;55;452,409999998054;"L";1;0;NA;"L";"black";"blue";"magnit";8;0;0;0;0;0
"1070";"5d1cfc4ee950480015366f7b";"BRAC2_horiLL_1st0";2;56;1425,94499999541;"L";1;0;NA;"L";"black";"red";"parity";9;0;1;0;1;0
"1074";"5d1cfc4ee950480015366f7b";"BRAC2_horiLL_1st0";2;57;548,214999987977;"L";1;0;NA;"L";"black";"red";"parity";3;0;0;0;0;0
"1078";"5d1cfc4ee950480015366f7b";"BRAC2_horiLL_1st0";2;58;850,105000019539;"L";1;0;NA;"L";"black";"blue";"magnit";8;0;1;0;1;0
"1082";"5d1cfc4ee950480015366f7b";"BRAC2_horiLL_1st0";2;59;790,09500000393;"L";1;0;NA;"L";"black";"red";"parity";1;0;1;0;1;0
"1086";"5d1cfc4ee950480015366f7b";"BRAC2_horiLL_1st0";2;60;410,734999983106;"A";1;0;NA;"A";"black";"blue";"magnit";2;0;1;1;1;0
"1090";"5d1cfc4ee950480015366f7b";"BRAC2_horiLL_1st0";2;61;1215,88000000338;"A";1;0;NA;"A";"black";"red";"magnit";1;0;0;0;1;0
"1094";"5d1cfc4ee950480015366f7b";"BRAC2_horiLL_1st0";2;62;620,199999975739;"A";1;0;NA;"A";"black";"red";"parity";2;0;1;0;0;0
"1098";"5d1cfc4ee950480015366f7b";"BRAC2_horiLL_1st0";2;63;973,765000002459;"L";1;0;NA;"L";"black";"blue";"magnit";7;0;1;1;1;0
"1102";"5d1cfc4ee950480015366f7b";"BRAC2_horiLL_1st0";2;64;536,220000009052;"L";1;0;NA;"L";"black";"red";"magnit";8;0;0;0;1;0
"1106";"5d1cfc4ee950480015366f7b";"BRAC2_horiLL_1st0";2;65;504,280000022845;"A";1;0;NA;"A";"black";"red";"magnit";3;0;0;1;0;0
"1110";"5d1cfc4ee950480015366f7b";"BRAC2_horiLL_1st0";2;66;567,999999999302;"L";1;0;NA;"L";"black";"red";"magnit";6;0;0;1;0;0
"1114";"5d1cfc4ee950480015366f7b";"BRAC2_horiLL_1st0";2;67;549,064999999246;"A";1;1;NA;"L";"black";"blue";"parity";7;0;1;0;1;0
"1118";"5d1cfc4ee950480015366f7b";"BRAC2_horiLL_1st0";2;68;424,915000010515;"A";1;0;NA;"A";"black";"blue";"parity";4;0;0;1;0;1
"1122";"5d1cfc4ee950480015366f7b";"BRAC2_horiLL_1st0";2;69;854,975000023842;"A";1;0;NA;"A";"black";"blue";"magnit";1;0;1;0;0;0
"1126";"5d1cfc4ee950480015366f7b";"BRAC2_horiLL_1st0";2;70;851,564999989932;"A";1;0;NA;"A";"black";"blue";"magnit";4;0;0;0;0;0
"1130";"5d1cfc4ee950480015366f7b";"BRAC2_horiLL_1st0";2;71;768,054999993183;"A";1;0;NA;"A";"black";"blue";"magnit";3;0;0;0;0;0
"1134";"5d1cfc4ee950480015366f7b";"BRAC2_horiLL_1st0";2;72;647,610000014538;"A";1;0;NA;"A";"black";"red";"parity";4;0;1;0;1;0
"1138";"5d1cfc4ee950480015366f7b";"BRAC2_horiLL_1st0";2;73;513,384999998379;"L";1;0;NA;"L";"black";"red";"magnit";6;0;1;1;0;0
"1142";"5d1cfc4ee950480015366f7b";"BRAC2_horiLL_1st0";2;74;363,565000006929;"L";1;0;NA;"L";"black";"blue";"parity";1;0;1;0;1;0
"1146";"5d1cfc4ee950480015366f7b";"BRAC2_horiLL_1st0";2;75;857,000000018161;"A";1;1;NA;"L";"black";"red";"magnit";7;0;1;0;1;0
"1150";"5d1cfc4ee950480015366f7b";"BRAC2_horiLL_1st0";2;76;587,059999990743;"A";1;0;NA;"A";"black";"blue";"magnit";4;0;0;1;1;1
"1154";"5d1cfc4ee950480015366f7b";"BRAC2_horiLL_1st0";2;77;554,669999983162;"A";1;0;NA;"A";"black";"blue";"magnit";3;0;0;0;0;0
"1158";"5d1cfc4ee950480015366f7b";"BRAC2_horiLL_1st0";2;78;519,985000020824;"A";1;0;NA;"A";"black";"blue";"parity";2;0;1;0;0;0
"1162";"5d1cfc4ee950480015366f7b";"BRAC2_horiLL_1st0";2;79;967,230000009295;"A";1;1;NA;"L";"black";"blue";"magnit";8;0;1;1;0;0
"1166";"5d1cfc4ee950480015366f7b";"BRAC2_horiLL_1st0";2;80;548,179999983404;"A";1;0;NA;"A";"black";"red";"magnit";2;0;0;1;1;1
"1170";"5d1cfc4ee950480015366f7b";"BRAC2_horiLL_1st0";2;81;1199,84499999555;"L";1;0;NA;"L";"black";"blue";"parity";3;0;1;1;1;0
"1174";"5d1cfc4ee950480015366f7b";"BRAC2_horiLL_1st0";2;82;435,964999982389;"L";1;0;NA;"L";"black";"blue";"parity";7;0;0;0;0;0
"1178";"5d1cfc4ee950480015366f7b";"BRAC2_horiLL_1st0";2;83;838,095000013709;"A";1;0;NA;"A";"black";"red";"parity";4;0;0;1;1;0
"1182";"5d1cfc4ee950480015366f7b";"BRAC2_horiLL_1st0";2;84;781,949999975041;"L";1;0;NA;"L";"black";"red";"magnit";9;0;1;1;0;0
"1186";"5d1cfc4ee950480015366f7b";"BRAC2_horiLL_1st0";2;85;548,420000006445;"A";1;0;NA;"A";"black";"blue";"magnit";3;0;0;1;1;0
"1190";"5d1cfc4ee950480015366f7b";"BRAC2_horiLL_1st0";2;86;1067,87499997881;"L";1;0;NA;"L";"black";"blue";"parity";1;0;1;1;0;0
"1194";"5d1cfc4ee950480015366f7b";"BRAC2_horiLL_1st0";2;87;729,250000003958;"A";1;0;NA;"A";"black";"red";"magnit";4;0;1;1;1;0
"1198";"5d1cfc4ee950480015366f7b";"BRAC2_horiLL_1st0";2;88;1215,40499999537;"A";1;0;NA;"A";"black";"blue";"parity";6;0;1;0;1;0
"1202";"5d1cfc4ee950480015366f7b";"BRAC2_horiLL_1st0";2;89;510,774999973364;"A";1;0;NA;"A";"black";"blue";"parity";8;0;0;0;0;0
"1206";"5d1cfc4ee950480015366f7b";"BRAC2_horiLL_1st0";2;90;1280,77499999199;"A";1;0;NA;"A";"black";"red";"parity";2;0;0;0;1;0
"1210";"5d1cfc4ee950480015366f7b";"BRAC2_horiLL_1st0";2;91;490,20999998902;"L";1;0;NA;"L";"black";"red";"parity";7;0;0;1;0;0
"1214";"5d1cfc4ee950480015366f7b";"BRAC2_horiLL_1st0";2;92;434,534999978496;"L";1;0;NA;"L";"black";"blue";"magnit";6;0;1;0;1;0
"1218";"5d1cfc4ee950480015366f7b";"BRAC2_horiLL_1st0";2;93;950,68499998888;"A";1;0;NA;"A";"black";"red";"magnit";3;0;0;1;1;0
"1222";"5d1cfc4ee950480015366f7b";"BRAC2_horiLL_1st0";2;94;641,499999997905;"A";1;0;NA;"A";"black";"red";"parity";8;0;1;0;0;0
"1226";"5d1cfc4ee950480015366f7b";"BRAC2_horiLL_1st0";2;95;608,039999991888;"A";1;0;NA;"A";"black";"red";"parity";6;0;0;0;0;0
"1231";"5d1cfc4ee950480015366f7b";"BRAC2_horiLL_1st0";3;0;921,819999988656;"A";1;0;NA;"A";"black";"blue";"parity";8;300;99;99;99;99
"1235";"5d1cfc4ee950480015366f7b";"BRAC2_horiLL_1st0";3;1;550,860000017565;"A";1;0;NA;"A";"black";"blue";"parity";4;300;0;0;0;0
"1239";"5d1cfc4ee950480015366f7b";"BRAC2_horiLL_1st0";3;2;558,204999979353;"L";1;0;NA;"L";"black";"red";"parity";1;300;0;1;1;0
"1243";"5d1cfc4ee950480015366f7b";"BRAC2_horiLL_1st0";3;3;542,830000020331;"L";1;0;NA;"L";"black";"red";"parity";9;300;0;0;0;0
"1247";"5d1cfc4ee950480015366f7b";"BRAC2_horiLL_1st0";3;4;674,700000003213;"A";1;0;NA;"A";"black";"blue";"parity";2;300;0;1;1;0
"1251";"5d1cfc4ee950480015366f7b";"BRAC2_horiLL_1st0";3;5;896,050000010291;"L";1;0;NA;"L";"black";"blue";"magnit";7;300;1;1;0;0
"1255";"5d1cfc4ee950480015366f7b";"BRAC2_horiLL_1st0";3;6;598,514999990584;"L";1;0;NA;"L";"black";"blue";"parity";9;300;1;0;0;0
"1259";"5d1cfc4ee950480015366f7b";"BRAC2_horiLL_1st0";3;7;932,299999985844;"A";1;0;NA;"A";"black";"red";"magnit";4;300;1;1;1;0
"1263";"5d1cfc4ee950480015366f7b";"BRAC2_horiLL_1st0";3;8;832,870000012917;"L";1;0;NA;"L";"black";"red";"parity";1;300;1;1;0;0
"1267";"5d1cfc4ee950480015366f7b";"BRAC2_horiLL_1st0";3;9;660,934999992605;"A";1;0;NA;"A";"black";"blue";"magnit";2;300;1;1;1;0
"1271";"5d1cfc4ee950480015366f7b";"BRAC2_horiLL_1st0";3;10;1080,35999999265;"A";1;1;NA;"L";"black";"red";"magnit";6;300;0;1;1;0
"1275";"5d1cfc4ee950480015366f7b";"BRAC2_horiLL_1st0";3;11;1047,36500000581;"L";1;0;NA;"L";"black";"red";"magnit";7;300;0;0;0;1
"1279";"5d1cfc4ee950480015366f7b";"BRAC2_horiLL_1st0";3;12;445,990000007441;"L";1;0;NA;"L";"black";"red";"magnit";8;300;0;0;0;0
"1283";"5d1cfc4ee950480015366f7b";"BRAC2_horiLL_1st0";3;13;745,079999993322;"L";1;0;NA;"L";"black";"blue";"parity";3;300;1;0;1;0
"1287";"5d1cfc4ee950480015366f7b";"BRAC2_horiLL_1st0";3;14;1127,16000000364;"L";1;0;NA;"L";"black";"red";"magnit";8;300;1;0;1;0
"1291";"5d1cfc4ee950480015366f7b";"BRAC2_horiLL_1st0";3;15;783,230000000913;"L";1;0;NA;"L";"black";"red";"parity";7;300;1;0;0;0
"1295";"5d1cfc4ee950480015366f7b";"BRAC2_horiLL_1st0";3;16;836,265000019921;"A";1;0;NA;"A";"black";"blue";"parity";6;300;0;1;1;0
"1299";"5d1cfc4ee950480015366f7b";"BRAC2_horiLL_1st0";3;17;501,775000011548;"L";1;0;NA;"L";"black";"red";"parity";9;300;0;1;1;0
"1303";"5d1cfc4ee950480015366f7b";"BRAC2_horiLL_1st0";3;18;691,430000006221;"A";1;0;NA;"A";"black";"red";"magnit";2;300;1;1;0;0
"1307";"5d1cfc4ee950480015366f7b";"BRAC2_horiLL_1st0";3;19;546,734999981709;"A";1;0;NA;"A";"black";"red";"magnit";1;300;0;0;0;0
"1311";"5d1cfc4ee950480015366f7b";"BRAC2_horiLL_1st0";3;20;923,204999999143;"L";1;0;NA;"L";"black";"blue";"magnit";7;300;0;1;1;0
"1315";"5d1cfc4ee950480015366f7b";"BRAC2_horiLL_1st0";3;21;1030,91000000131;"A";1;0;NA;"A";"black";"red";"parity";6;300;1;1;1;0
"1319";"5d1cfc4ee950480015366f7b";"BRAC2_horiLL_1st0";3;22;595,585000002757;"A";1;0;NA;"A";"black";"red";"parity";2;300;0;0;0;0
"1323";"5d1cfc4ee950480015366f7b";"BRAC2_horiLL_1st0";3;23;1367,8249999939;"A";1;0;NA;"A";"black";"blue";"parity";6;300;0;0;1;0
"1327";"5d1cfc4ee950480015366f7b";"BRAC2_horiLL_1st0";3;24;600,780000007944;"L";1;0;NA;"L";"black";"blue";"parity";3;300;0;1;0;0
"1331";"5d1cfc4ee950480015366f7b";"BRAC2_horiLL_1st0";3;25;1267,37499999581;"A";1;0;NA;"A";"black";"red";"parity";8;300;0;1;1;0
"1335";"5d1cfc4ee950480015366f7b";"BRAC2_horiLL_1st0";3;26;878,240000020014;"L";1;0;NA;"L";"black";"blue";"magnit";6;300;1;1;1;0
"1339";"5d1cfc4ee950480015366f7b";"BRAC2_horiLL_1st0";3;27;1234,7749999899;"A";1;0;NA;"A";"black";"blue";"parity";4;300;1;1;0;0
"1343";"5d1cfc4ee950480015366f7b";"BRAC2_horiLL_1st0";3;28;559,795000008307;"L";1;0;NA;"L";"black";"blue";"parity";1;300;0;1;0;0
"1347";"5d1cfc4ee950480015366f7b";"BRAC2_horiLL_1st0";3;29;493,855000007898;"L";1;0;NA;"L";"black";"red";"magnit";9;300;1;0;1;0
"1351";"5d1cfc4ee950480015366f7b";"BRAC2_horiLL_1st0";3;30;883,310000004712;"L";1;0;NA;"L";"black";"blue";"magnit";8;300;0;0;1;0
"1355";"5d1cfc4ee950480015366f7b";"BRAC2_horiLL_1st0";3;31;933,179999992717;"A";1;1;NA;"L";"black";"blue";"magnit";7;300;0;0;0;0
"1359";"5d1cfc4ee950480015366f7b";"BRAC2_horiLL_1st0";3;32;634,22000000719;"A";1;0;NA;"A";"black";"blue";"magnit";2;300;0;1;0;1
"1363";"5d1cfc4ee950480015366f7b";"BRAC2_horiLL_1st0";3;33;814,729999983683;"A";1;0;NA;"A";"black";"red";"magnit";3;300;0;0;1;0
"1367";"5d1cfc4ee950480015366f7b";"BRAC2_horiLL_1st0";3;34;703,535000007832;"A";1;0;NA;"A";"black";"red";"magnit";2;300;0;0;0;0
"1371";"5d1cfc4ee950480015366f7b";"BRAC2_horiLL_1st0";3;35;575,400000001537;"A";1;0;NA;"A";"black";"blue";"magnit";1;300;0;0;1;0
"1375";"5d1cfc4ee950480015366f7b";"BRAC2_horiLL_1st0";3;36;659,169999998994;"A";1;0;NA;"A";"black";"blue";"magnit";4;300;0;0;0;0
"1379";"5d1cfc4ee950480015366f7b";"BRAC2_horiLL_1st0";3;37;568,874999997206;"A";1;0;NA;"A";"black";"blue";"magnit";3;300;0;0;0;0
"1383";"5d1cfc4ee950480015366f7b";"BRAC2_horiLL_1st0";3;38;549,809999996796;"L";1;0;NA;"L";"black";"blue";"parity";7;300;1;1;0;0
"1387";"5d1cfc4ee950480015366f7b";"BRAC2_horiLL_1st0";3;39;957,969999988563;"L";1;1;NA;"A";"black";"blue";"parity";2;300;0;1;0;0
"1391";"5d1cfc4ee950480015366f7b";"BRAC2_horiLL_1st0";3;40;974,124999978812;"A";1;0;NA;"A";"black";"blue";"magnit";1;300;1;0;0;1
"1395";"5d1cfc4ee950480015366f7b";"BRAC2_horiLL_1st0";3;41;918,669999984559;"L";1;0;NA;"L";"black";"blue";"magnit";6;300;0;1;0;0
"1399";"5d1cfc4ee950480015366f7b";"BRAC2_horiLL_1st0";3;42;640,155000000959;"A";1;0;NA;"A";"black";"blue";"parity";2;300;1;1;0;0
"1403";"5d1cfc4ee950480015366f7b";"BRAC2_horiLL_1st0";3;43;362,125000014203;"L";1;1;NA;"A";"black";"red";"parity";6;300;0;0;1;0
"1407";"5d1cfc4ee950480015366f7b";"BRAC2_horiLL_1st0";3;44;628,765000001295;"L";1;0;NA;"L";"black";"red";"parity";3;300;0;1;0;1
"1411";"5d1cfc4ee950480015366f7b";"BRAC2_horiLL_1st0";3;45;1539,02999998536;"L";1;0;NA;"L";"black";"blue";"parity";9;300;0;0;1;0
"1415";"5d1cfc4ee950480015366f7b";"BRAC2_horiLL_1st0";3;46;557,050000003073;"L";1;0;NA;"L";"black";"red";"parity";3;300;0;0;1;0
"1419";"5d1cfc4ee950480015366f7b";"BRAC2_horiLL_1st0";3;47;732,764999993378;"A";1;1;NA;"L";"black";"blue";"magnit";8;300;1;0;1;0
"1423";"5d1cfc4ee950480015366f7b";"BRAC2_horiLL_1st0";3;48;766,445000015665;"L";1;0;NA;"L";"black";"red";"parity";3;300;1;0;1;1
"1427";"5d1cfc4ee950480015366f7b";"BRAC2_horiLL_1st0";3;49;559,940000006463;"L";1;0;NA;"L";"black";"blue";"magnit";9;300;1;0;1;0
"1431";"5d1cfc4ee950480015366f7b";"BRAC2_horiLL_1st0";3;50;527,520000003278;"L";1;0;NA;"L";"black";"blue";"magnit";6;300;0;0;0;0
"1435";"5d1cfc4ee950480015366f7b";"BRAC2_horiLL_1st0";3;51;510,299999994459;"A";1;0;NA;"A";"black";"red";"magnit";1;300;0;1;1;0
"1439";"5d1cfc4ee950480015366f7b";"BRAC2_horiLL_1st0";3;52;859,635000000708;"L";1;0;NA;"L";"black";"red";"parity";7;300;1;1;0;0
"1443";"5d1cfc4ee950480015366f7b";"BRAC2_horiLL_1st0";3;53;516,865000012331;"A";1;0;NA;"A";"black";"red";"magnit";3;300;1;1;0;0
"1447";"5d1cfc4ee950480015366f7b";"BRAC2_horiLL_1st0";3;54;667,084999993676;"A";1;0;NA;"A";"black";"blue";"parity";6;300;1;0;1;0
"1451";"5d1cfc4ee950480015366f7b";"BRAC2_horiLL_1st0";3;55;1112,42499999935;"A";1;0;NA;"A";"black";"red";"parity";2;300;0;0;1;0
"1455";"5d1cfc4ee950480015366f7b";"BRAC2_horiLL_1st0";3;56;914,449999982025;"A";1;0;NA;"A";"black";"blue";"magnit";3;300;1;0;1;0
"1459";"5d1cfc4ee950480015366f7b";"BRAC2_horiLL_1st0";3;57;479,599999991478;"L";1;0;NA;"L";"black";"blue";"parity";7;300;1;1;0;0
"1463";"5d1cfc4ee950480015366f7b";"BRAC2_horiLL_1st0";3;58;504,675000003772;"A";1;0;NA;"A";"black";"red";"parity";2;300;0;1;1;0
"1467";"5d1cfc4ee950480015366f7b";"BRAC2_horiLL_1st0";3;59;1129,04999998864;"L";1;0;NA;"L";"black";"red";"magnit";8;300;1;1;0;0
"1471";"5d1cfc4ee950480015366f7b";"BRAC2_horiLL_1st0";3;60;487,809999991441;"L";1;0;NA;"L";"black";"blue";"parity";1;300;1;0;1;0
"1475";"5d1cfc4ee950480015366f7b";"BRAC2_horiLL_1st0";3;61;1038,76500000479;"A";1;0;NA;"A";"black";"red";"parity";4;300;0;1;1;0
"1479";"5d1cfc4ee950480015366f7b";"BRAC2_horiLL_1st0";3;62;430,655000003753;"L";1;0;NA;"L";"black";"blue";"parity";3;300;0;1;1;0
"1483";"5d1cfc4ee950480015366f7b";"BRAC2_horiLL_1st0";3;63;597,130000009201;"A";1;0;NA;"A";"black";"blue";"parity";8;300;0;1;0;0
"1487";"5d1cfc4ee950480015366f7b";"BRAC2_horiLL_1st0";3;64;542,134999996051;"A";1;0;NA;"A";"black";"blue";"magnit";1;300;1;0;0;0
"1491";"5d1cfc4ee950480015366f7b";"BRAC2_horiLL_1st0";3;65;524,739999993471;"L";1;0;NA;"L";"black";"blue";"magnit";9;300;0;1;0;0
"1495";"5d1cfc4ee950480015366f7b";"BRAC2_horiLL_1st0";3;66;614,854999992531;"A";1;0;NA;"A";"black";"red";"parity";4;300;1;1;1;0
"1499";"5d1cfc4ee950480015366f7b";"BRAC2_horiLL_1st0";3;67;522,460000007413;"L";1;0;NA;"L";"black";"red";"magnit";6;300;1;1;0;0
"1503";"5d1cfc4ee950480015366f7b";"BRAC2_horiLL_1st0";3;68;695,915000018431;"L";1;0;NA;"L";"black";"red";"magnit";9;300;0;0;0;0
"1507";"5d1cfc4ee950480015366f7b";"BRAC2_horiLL_1st0";3;69;768,46000002115;"A";1;0;NA;"A";"black";"red";"magnit";4;300;0;1;0;0
"1511";"5d1cfc4ee950480015366f7b";"BRAC2_horiLL_1st0";3;70;601,194999995641;"L";1;0;NA;"L";"black";"red";"magnit";7;300;0;1;0;0
"1515";"5d1cfc4ee950480015366f7b";"BRAC2_horiLL_1st0";3;71;1037,51999998349;"L";1;0;NA;"L";"black";"red";"parity";9;300;1;0;0;0
"1519";"5d1cfc4ee950480015366f7b";"BRAC2_horiLL_1st0";3;72;418,760000000475;"A";1;1;NA;"L";"black";"blue";"parity";1;300;0;0;1;0
"1523";"5d1cfc4ee950480015366f7b";"BRAC2_horiLL_1st0";3;73;886,264999979176;"A";1;0;NA;"A";"black";"red";"magnit";4;300;1;1;1;1
"1527";"5d1cfc4ee950480015366f7b";"BRAC2_horiLL_1st0";3;74;1934,84999999055;"A";1;0;NA;"A";"black";"blue";"parity";8;300;1;0;1;0
"1531";"5d1cfc4ee950480015366f7b";"BRAC2_horiLL_1st0";3;75;721,134999999776;"A";1;0;NA;"A";"black";"blue";"magnit";2;300;1;0;0;0
"1535";"5d1cfc4ee950480015366f7b";"BRAC2_horiLL_1st0";3;76;1208,32000000519;"A";1;0;NA;"A";"black";"blue";"parity";4;300;1;0;0;0
"1539";"5d1cfc4ee950480015366f7b";"BRAC2_horiLL_1st0";3;77;617,264999978943;"A";1;0;NA;"A";"black";"red";"magnit";1;300;1;0;1;0
"1543";"5d1cfc4ee950480015366f7b";"BRAC2_horiLL_1st0";3;78;868,600000016158;"A";1;0;NA;"A";"black";"red";"parity";4;300;1;0;0;0
"1547";"5d1cfc4ee950480015366f7b";"BRAC2_horiLL_1st0";3;79;1287,08999999799;"L";1;0;NA;"L";"black";"red";"magnit";6;300;1;1;0;0
"1551";"5d1cfc4ee950480015366f7b";"BRAC2_horiLL_1st0";3;80;1189,92499998421;"L";1;0;NA;"L";"black";"red";"parity";7;300;1;0;0;0
"1555";"5d1cfc4ee950480015366f7b";"BRAC2_horiLL_1st0";3;81;1155,25999999954;"L";1;0;NA;"L";"black";"blue";"magnit";8;300;1;0;1;0
"1559";"5d1cfc4ee950480015366f7b";"BRAC2_horiLL_1st0";3;82;527,540000010049;"L";1;0;NA;"L";"black";"blue";"parity";7;300;1;0;0;0
"1563";"5d1cfc4ee950480015366f7b";"BRAC2_horiLL_1st0";3;83;1213,71999999974;"A";1;0;NA;"A";"black";"red";"parity";8;300;0;1;1;0
"1567";"5d1cfc4ee950480015366f7b";"BRAC2_horiLL_1st0";3;84;1099,47500002454;"L";1;0;NA;"L";"black";"red";"magnit";7;300;1;1;0;0
"1571";"5d1cfc4ee950480015366f7b";"BRAC2_horiLL_1st0";3;85;550,844999990659;"A";1;0;NA;"A";"black";"blue";"magnit";4;300;0;1;1;0
"1575";"5d1cfc4ee950480015366f7b";"BRAC2_horiLL_1st0";3;86;569,470000016736;"L";1;0;NA;"L";"black";"blue";"parity";9;300;1;1;0;0
"1579";"5d1cfc4ee950480015366f7b";"BRAC2_horiLL_1st0";3;87;1189,99499999336;"A";1;0;NA;"A";"black";"red";"magnit";2;300;1;1;1;0
"1583";"5d1cfc4ee950480015366f7b";"BRAC2_horiLL_1st0";3;88;417,110000009416;"L";1;0;NA;"L";"black";"blue";"magnit";9;300;0;1;1;0
"1587";"5d1cfc4ee950480015366f7b";"BRAC2_horiLL_1st0";3;89;598,765000002459;"L";1;0;NA;"L";"black";"red";"parity";1;300;1;0;1;0
"1591";"5d1cfc4ee950480015366f7b";"BRAC2_horiLL_1st0";3;90;894,6350000042;"A";1;0;NA;"A";"black";"red";"parity";8;300;0;1;0;0
"1595";"5d1cfc4ee950480015366f7b";"BRAC2_horiLL_1st0";3;91;457,130000024335;"L";1;1;NA;"A";"black";"blue";"magnit";3;300;1;0;1;0
"1599";"5d1cfc4ee950480015366f7b";"BRAC2_horiLL_1st0";3;92;342,085000011139;"L";1;0;NA;"L";"black";"red";"magnit";9;300;0;1;1;1
"1603";"5d1cfc4ee950480015366f7b";"BRAC2_horiLL_1st0";3;93;777,054999984102;"A";1;0;NA;"A";"black";"red";"parity";6;300;1;1;0;0
"1607";"5d1cfc4ee950480015366f7b";"BRAC2_horiLL_1st0";3;94;940,280000009807;"A";1;0;NA;"A";"black";"red";"magnit";3;300;1;0;0;0
"1611";"5d1cfc4ee950480015366f7b";"BRAC2_horiLL_1st0";3;95;421,934999991208;"L";1;1;NA;"A";"black";"blue";"magnit";4;300;0;0;1;0
"1689";"5ec15cab0c15fc0358052c00";"BRAC2_vertLL_1st300";0;0;817,465000000084;"A";1;0;NA;"A";"black";"red";"parity";2;300;99;99;99;99
"1693";"5ec15cab0c15fc0358052c00";"BRAC2_vertLL_1st300";0;1;1042,04000000027;"L";1;0;NA;"L";"black";"blue";"parity";1;300;0;1;1;0
"1697";"5ec15cab0c15fc0358052c00";"BRAC2_vertLL_1st300";0;2;1220,90999998909;"A";1;0;NA;"A";"black";"blue";"parity";8;300;0;1;0;0
"1701";"5ec15cab0c15fc0358052c00";"BRAC2_vertLL_1st300";0;3;1211,78499999223;"A";1;0;NA;"A";"black";"red";"parity";6;300;0;0;1;0
"1705";"5ec15cab0c15fc0358052c00";"BRAC2_vertLL_1st300";0;4;506,784999990487;"L";1;0;NA;"L";"black";"blue";"magnit";9;300;1;1;1;0
"1709";"5ec15cab0c15fc0358052c00";"BRAC2_vertLL_1st300";0;5;936,945000008564;"A";1;0;NA;"A";"black";"red";"parity";8;300;1;1;1;0
"1713";"5ec15cab0c15fc0358052c00";"BRAC2_vertLL_1st300";0;6;494,940000004135;"L";1;0;NA;"L";"black";"red";"parity";7;300;0;1;0;0
"1717";"5ec15cab0c15fc0358052c00";"BRAC2_vertLL_1st300";0;7;906,86000000278;"A";1;0;NA;"A";"black";"blue";"parity";6;300;0;1;1;0
"1721";"5ec15cab0c15fc0358052c00";"BRAC2_vertLL_1st300";0;8;623,005000001285;"A";1;0;NA;"A";"black";"red";"magnit";1;300;1;0;1;0
"1725";"5ec15cab0c15fc0358052c00";"BRAC2_vertLL_1st300";0;9;943,750000005821;"A";1;0;NA;"A";"black";"blue";"parity";8;300;1;0;1;0
"1729";"5ec15cab0c15fc0358052c00";"BRAC2_vertLL_1st300";0;10;1429,3949999992;"A";1;1;NA;"L";"black";"blue";"magnit";9;300;1;1;0;0
"1733";"5ec15cab0c15fc0358052c00";"BRAC2_vertLL_1st300";0;11;1436,44000000495;"A";1;0;NA;"A";"black";"red";"magnit";3;300;0;1;1;1
"1737";"5ec15cab0c15fc0358052c00";"BRAC2_vertLL_1st300";0;12;713,264999998501;"L";1;0;NA;"L";"black";"red";"magnit";8;300;0;1;0;0
"1741";"5ec15cab0c15fc0358052c00";"BRAC2_vertLL_1st300";0;13;697,770000013406;"L";1;0;NA;"L";"black";"red";"magnit";7;300;0;0;0;0
"1745";"5ec15cab0c15fc0358052c00";"BRAC2_vertLL_1st300";0;14;1026,60000001197;"A";1;1;NA;"L";"black";"blue";"parity";3;300;1;0;1;0
"1749";"5ec15cab0c15fc0358052c00";"BRAC2_vertLL_1st300";0;15;767,754999993485;"L";1;0;NA;"L";"black";"red";"parity";9;300;0;0;1;1
"1753";"5ec15cab0c15fc0358052c00";"BRAC2_vertLL_1st300";0;16;1728,12000001431;"L";1;0;NA;"L";"black";"red";"magnit";6;300;1;0;0;0
"1757";"5ec15cab0c15fc0358052c00";"BRAC2_vertLL_1st300";0;17;647,125000003143;"L";1;0;NA;"L";"black";"red";"magnit";9;300;0;0;0;0
"1761";"5ec15cab0c15fc0358052c00";"BRAC2_vertLL_1st300";0;18;1418,9400000032;"L";1;0;NA;"L";"black";"red";"parity";7;300;1;0;0;0
"1765";"5ec15cab0c15fc0358052c00";"BRAC2_vertLL_1st300";0;19;1553,37500000314;"L";1;1;NA;"A";"black";"red";"parity";6;300;0;1;0;0
"1769";"5ec15cab0c15fc0358052c00";"BRAC2_vertLL_1st300";0;20;1436,80999999924;"L";1;0;NA;"L";"black";"red";"magnit";7;300;1;1;0;1
"1773";"5ec15cab0c15fc0358052c00";"BRAC2_vertLL_1st300";0;21;1693,26999998884;"A";1;0;NA;"A";"black";"blue";"parity";2;300;1;1;1;0
"1777";"5ec15cab0c15fc0358052c00";"BRAC2_vertLL_1st300";0;22;1148,82000000216;"L";1;0;NA;"L";"black";"blue";"magnit";7;300;1;1;0;0
"1781";"5ec15cab0c15fc0358052c00";"BRAC2_vertLL_1st300";0;23;2499,94699999999;NA;NA;1;1;"L";"black";"blue";"parity";9;300;1;0;0;0
"1785";"5ec15cab0c15fc0358052c00";"BRAC2_vertLL_1st300";0;24;831,160000001546;"L";1;0;NA;"L";"black";"blue";"magnit";8;300;1;0;0;1
"1789";"5ec15cab0c15fc0358052c00";"BRAC2_vertLL_1st300";0;25;1652,4700000009;"A";1;1;NA;"L";"black";"red";"parity";9;300;1;0;1;0
"1793";"5ec15cab0c15fc0358052c00";"BRAC2_vertLL_1st300";0;26;675,164999993285;"A";1;0;NA;"A";"black";"blue";"magnit";2;300;1;1;1;1
"1797";"5ec15cab0c15fc0358052c00";"BRAC2_vertLL_1st300";0;27;1518,10500001011;"L";1;0;NA;"L";"black";"blue";"parity";3;300;1;1;0;0
"1801";"5ec15cab0c15fc0358052c00";"BRAC2_vertLL_1st300";0;28;2132,4900000036;"A";1;0;NA;"A";"black";"blue";"parity";4;300;0;1;0;0
"1805";"5ec15cab0c15fc0358052c00";"BRAC2_vertLL_1st300";0;29;1671,875;"A";1;0;NA;"A";"black";"blue";"magnit";1;300;1;0;0;0
"1809";"5ec15cab0c15fc0358052c00";"BRAC2_vertLL_1st300";0;30;1123,68499999866;"L";1;0;NA;"L";"black";"blue";"magnit";6;300;0;1;0;0
"1813";"5ec15cab0c15fc0358052c00";"BRAC2_vertLL_1st300";0;31;634,414999993169;"L";1;0;NA;"L";"black";"blue";"magnit";8;300;0;0;0;0
"1817";"5ec15cab0c15fc0358052c00";"BRAC2_vertLL_1st300";0;32;1042,45999999694;"A";1;0;NA;"A";"black";"blue";"magnit";2;300;0;1;0;0
"1821";"5ec15cab0c15fc0358052c00";"BRAC2_vertLL_1st300";0;33;1078,38999999512;"A";1;0;NA;"A";"black";"blue";"parity";4;300;1;0;0;0
"1825";"5ec15cab0c15fc0358052c00";"BRAC2_vertLL_1st300";0;34;940,835000001243;"A";1;0;NA;"A";"black";"red";"parity";2;300;0;0;1;0
"1829";"5ec15cab0c15fc0358052c00";"BRAC2_vertLL_1st300";0;35;1406,92500000296;"L";1;0;NA;"L";"black";"red";"parity";3;300;0;1;0;0
"1833";"5ec15cab0c15fc0358052c00";"BRAC2_vertLL_1st300";0;36;1826,53000000573;"A";1;1;NA;"L";"black";"blue";"parity";7;300;0;0;1;0
"1837";"5ec15cab0c15fc0358052c00";"BRAC2_vertLL_1st300";0;37;904,015000007348;"L";1;0;NA;"L";"black";"red";"parity";3;300;0;0;1;1
"1841";"5ec15cab0c15fc0358052c00";"BRAC2_vertLL_1st300";0;38;1654,77000000828;"L";1;0;NA;"L";"black";"blue";"parity";1;300;0;0;1;0
"1845";"5ec15cab0c15fc0358052c00";"BRAC2_vertLL_1st300";0;39;1032,63000000152;"L";1;0;NA;"L";"black";"red";"magnit";8;300;1;0;1;0
"1849";"5ec15cab0c15fc0358052c00";"BRAC2_vertLL_1st300";0;40;1539,95500000019;"L";1;0;NA;"L";"black";"blue";"parity";3;300;1;0;1;0
"1853";"5ec15cab0c15fc0358052c00";"BRAC2_vertLL_1st300";0;41;988,490000003367;"L";1;0;NA;"L";"black";"red";"magnit";8;300;1;0;1;0
"1857";"5ec15cab0c15fc0358052c00";"BRAC2_vertLL_1st300";0;42;899,864999999409;"A";1;0;NA;"A";"black";"red";"magnit";3;300;0;1;0;0
"1861";"5ec15cab0c15fc0358052c00";"BRAC2_vertLL_1st300";0;43;904,899999994086;"L";1;0;NA;"L";"black";"blue";"parity";1;300;1;1;1;0
"1865";"5ec15cab0c15fc0358052c00";"BRAC2_vertLL_1st300";0;44;1784,07999999763;"A";1;0;NA;"A";"black";"blue";"parity";8;300;0;1;0;0
"1869";"5ec15cab0c15fc0358052c00";"BRAC2_vertLL_1st300";0;45;1426,8149999989;"L";1;0;NA;"L";"black";"red";"magnit";9;300;1;1;1;0
"1873";"5ec15cab0c15fc0358052c00";"BRAC2_vertLL_1st300";0;46;2203,37499999732;"A";1;1;NA;"L";"black";"red";"parity";1;300;1;0;0;0
"1877";"5ec15cab0c15fc0358052c00";"BRAC2_vertLL_1st300";0;47;1821,54499999888;"A";1;0;NA;"A";"black";"blue";"parity";4;300;0;1;1;1
"1881";"5ec15cab0c15fc0358052c00";"BRAC2_vertLL_1st300";0;48;647,874999995111;"L";1;0;NA;"L";"black";"blue";"magnit";8;300;1;1;0;0
"1885";"5ec15cab0c15fc0358052c00";"BRAC2_vertLL_1st300";0;49;2067,85000000673;"A";1;0;NA;"A";"black";"blue";"magnit";1;300;0;1;0;0
"1889";"5ec15cab0c15fc0358052c00";"BRAC2_vertLL_1st300";0;50;1466,25500000664;"A";1;0;NA;"A";"black";"red";"parity";6;300;1;0;1;0
"1893";"5ec15cab0c15fc0358052c00";"BRAC2_vertLL_1st300";0;51;1537,88499999791;"A";1;0;NA;"A";"black";"red";"magnit";2;300;1;0;0;0
"1897";"5ec15cab0c15fc0358052c00";"BRAC2_vertLL_1st300";0;52;2222,91499999119;"L";1;0;NA;"L";"black";"blue";"parity";7;300;1;1;1;0
"1901";"5ec15cab0c15fc0358052c00";"BRAC2_vertLL_1st300";0;53;1059,62499999441;"A";1;0;NA;"A";"black";"blue";"magnit";3;300;1;1;0;0
"1905";"5ec15cab0c15fc0358052c00";"BRAC2_vertLL_1st300";0;54;1177,89999999513;"A";1;0;NA;"A";"black";"red";"magnit";2;300;0;0;1;0
"1909";"5ec15cab0c15fc0358052c00";"BRAC2_vertLL_1st300";0;55;1325,79500001157;"A";1;0;NA;"A";"black";"red";"magnit";4;300;0;0;0;0
"1913";"5ec15cab0c15fc0358052c00";"BRAC2_vertLL_1st300";0;56;731,354999996256;"A";1;0;NA;"A";"black";"blue";"magnit";1;300;0;0;1;0
"1917";"5ec15cab0c15fc0358052c00";"BRAC2_vertLL_1st300";0;57;826,235000000452;"A";1;0;NA;"A";"black";"blue";"magnit";3;300;0;0;0;0
"1921";"5ec15cab0c15fc0358052c00";"BRAC2_vertLL_1st300";0;58;580,184999998892;"A";1;0;NA;"A";"black";"red";"magnit";4;300;0;0;1;0
"1925";"5ec15cab0c15fc0358052c00";"BRAC2_vertLL_1st300";0;59;1276,17500000633;"A";1;0;NA;"A";"black";"red";"parity";2;300;1;0;0;0
"1929";"5ec15cab0c15fc0358052c00";"BRAC2_vertLL_1st300";0;60;1684,28000000131;"A";1;0;NA;"A";"black";"blue";"magnit";4;300;1;0;1;0
"1933";"5ec15cab0c15fc0358052c00";"BRAC2_vertLL_1st300";0;61;1380,6149999873;"A";1;0;NA;"A";"black";"blue";"parity";2;300;1;0;0;0
"1937";"5ec15cab0c15fc0358052c00";"BRAC2_vertLL_1st300";0;62;1795,44999999052;"L";1;0;NA;"L";"black";"red";"parity";1;300;0;1;1;0
"1941";"5ec15cab0c15fc0358052c00";"BRAC2_vertLL_1st300";0;63;1367,09499999415;"L";1;0;NA;"L";"black";"red";"magnit";6;300;1;0;0;0
"1945";"5ec15cab0c15fc0358052c00";"BRAC2_vertLL_1st300";0;64;2499,90399999998;NA;NA;1;1;"A";"black";"blue";"magnit";4;300;0;1;1;0
"1949";"5ec15cab0c15fc0358052c00";"BRAC2_vertLL_1st300";0;65;2111,25000000175;"L";1;0;NA;"L";"black";"red";"parity";9;300;1;1;1;1
"1953";"5ec15cab0c15fc0358052c00";"BRAC2_vertLL_1st300";0;66;1544,0249999956;"L";1;0;NA;"L";"black";"red";"parity";1;300;0;0;0;0
"1957";"5ec15cab0c15fc0358052c00";"BRAC2_vertLL_1st300";0;67;1269,61000000301;"A";1;0;NA;"A";"black";"red";"magnit";3;300;1;1;0;0
"1961";"5ec15cab0c15fc0358052c00";"BRAC2_vertLL_1st300";0;68;2499,88199999998;NA;NA;1;1;"A";"black";"red";"parity";8;300;1;0;0;0
"1965";"5ec15cab0c15fc0358052c00";"BRAC2_vertLL_1st300";0;69;1421,74000000523;"L";1;0;NA;"L";"black";"blue";"parity";9;300;0;1;1;1
"1969";"5ec15cab0c15fc0358052c00";"BRAC2_vertLL_1st300";0;70;1901,73499999219;"A";1;0;NA;"A";"black";"blue";"parity";6;300;0;1;0;0
"1973";"5ec15cab0c15fc0358052c00";"BRAC2_vertLL_1st300";0;71;959,000000002561;"A";1;0;NA;"A";"black";"blue";"magnit";4;300;1;0;0;0
"1977";"5ec15cab0c15fc0358052c00";"BRAC2_vertLL_1st300";0;72;1135,88499999605;"L";1;0;NA;"L";"black";"blue";"magnit";6;300;0;1;0;0
"1981";"5ec15cab0c15fc0358052c00";"BRAC2_vertLL_1st300";0;73;693,134999994072;"A";1;0;NA;"A";"black";"blue";"magnit";2;300;0;1;0;0
"1985";"5ec15cab0c15fc0358052c00";"BRAC2_vertLL_1st300";0;74;1894,69000000099;"L";1;0;NA;"L";"black";"red";"parity";7;300;1;1;1;0
"1989";"5ec15cab0c15fc0358052c00";"BRAC2_vertLL_1st300";0;75;1486,0950000002;"A";1;0;NA;"A";"black";"red";"parity";4;300;0;1;0;0
"1993";"5ec15cab0c15fc0358052c00";"BRAC2_vertLL_1st300";0;76;1624,03999999515;"L";1;0;NA;"L";"black";"blue";"parity";7;300;0;1;1;0
"1997";"5ec15cab0c15fc0358052c00";"BRAC2_vertLL_1st300";0;77;834,679999999935;"L";1;0;NA;"L";"black";"blue";"parity";9;300;0;0;0;0
"2001";"5ec15cab0c15fc0358052c00";"BRAC2_vertLL_1st300";0;78;759,489999996731;"A";1;0;NA;"A";"black";"red";"parity";4;300;0;1;1;0
"2005";"5ec15cab0c15fc0358052c00";"BRAC2_vertLL_1st300";0;79;1410,77000000223;"A";1;0;NA;"A";"black";"red";"magnit";2;300;1;0;0;0
"2009";"5ec15cab0c15fc0358052c00";"BRAC2_vertLL_1st300";0;80;1688,58499999624;"A";1;0;NA;"A";"black";"red";"parity";4;300;1;0;0;0
"2013";"5ec15cab0c15fc0358052c00";"BRAC2_vertLL_1st300";0;81;1517,48999999836;"A";1;0;NA;"A";"black";"red";"magnit";1;300;1;0;0;0
"2017";"5ec15cab0c15fc0358052c00";"BRAC2_vertLL_1st300";0;82;2095,96500000043;"L";1;0;NA;"L";"black";"blue";"magnit";6;300;0;1;1;0
"2021";"5ec15cab0c15fc0358052c00";"BRAC2_vertLL_1st300";0;83;702,564999999595;"A";1;0;NA;"A";"black";"red";"magnit";1;300;0;1;1;0
"2025";"5ec15cab0c15fc0358052c00";"BRAC2_vertLL_1st300";0;84;2073,72499999474;"A";1;0;NA;"A";"black";"red";"parity";8;300;1;0;0;0
"2029";"5ec15cab0c15fc0358052c00";"BRAC2_vertLL_1st300";0;85;1784,05000000203;"L";1;0;NA;"L";"black";"red";"magnit";9;300;1;1;0;0
"2033";"5ec15cab0c15fc0358052c00";"BRAC2_vertLL_1st300";0;86;1506,83500000741;"L";1;0;NA;"L";"black";"red";"magnit";6;300;0;0;0;0
"2037";"5ec15cab0c15fc0358052c00";"BRAC2_vertLL_1st300";0;87;1216,37999999803;"A";1;0;NA;"A";"black";"blue";"magnit";3;300;0;1;1;0
"2041";"5ec15cab0c15fc0358052c00";"BRAC2_vertLL_1st300";0;88;1148,7749999942;"L";1;0;NA;"L";"black";"blue";"magnit";7;300;0;1;0;0
"2045";"5ec15cab0c15fc0358052c00";"BRAC2_vertLL_1st300";0;89;1233,99999999674;"L";1;0;NA;"L";"black";"blue";"magnit";9;300;0;0;0;0
"2049";"5ec15cab0c15fc0358052c00";"BRAC2_vertLL_1st300";0;90;2499,92700000003;NA;NA;1;1;"L";"black";"red";"parity";3;300;1;0;1;0
"2053";"5ec15cab0c15fc0358052c00";"BRAC2_vertLL_1st300";0;91;2499,89400000003;NA;NA;1;1;"A";"black";"blue";"parity";6;300;0;1;1;1
"2057";"5ec15cab0c15fc0358052c00";"BRAC2_vertLL_1st300";0;92;1943,52499999513;"L";1;0;NA;"L";"black";"red";"magnit";7;300;1;1;1;1
"2061";"5ec15cab0c15fc0358052c00";"BRAC2_vertLL_1st300";0;93;1601,13500000443;"A";1;0;NA;"A";"black";"blue";"parity";2;300;1;1;1;0
"2065";"5ec15cab0c15fc0358052c00";"BRAC2_vertLL_1st300";0;94;1095,70999999414;"A";1;0;NA;"A";"black";"red";"magnit";4;300;1;0;1;0
"2069";"5ec15cab0c15fc0358052c00";"BRAC2_vertLL_1st300";0;95;1527,52000000328;"L";1;0;NA;"L";"black";"blue";"magnit";7;300;0;1;1;0
"2074";"5ec15cab0c15fc0358052c00";"BRAC2_vertLL_1st300";1;0;2499,93599999999;NA;NA;1;1;"A";"black";"blue";"parity";2;0;99;99;99;99
"2078";"5ec15cab0c15fc0358052c00";"BRAC2_vertLL_1st300";1;1;1286,41499999503;"A";1;0;NA;"A";"black";"red";"parity";8;0;0;0;1;1
"2082";"5ec15cab0c15fc0358052c00";"BRAC2_vertLL_1st300";1;2;2400,60500000254;"A";1;0;NA;"A";"black";"blue";"parity";4;0;0;0;1;0
"2086";"5ec15cab0c15fc0358052c00";"BRAC2_vertLL_1st300";1;3;1157,48499998881;"L";1;0;NA;"L";"black";"blue";"magnit";6;0;1;1;0;0
"2090";"5ec15cab0c15fc0358052c00";"BRAC2_vertLL_1st300";1;4;1224,70500000054;"A";1;0;NA;"A";"black";"blue";"parity";2;0;1;1;0;0
"2094";"5ec15cab0c15fc0358052c00";"BRAC2_vertLL_1st300";1;5;1319,86499999766;"L";1;1;NA;"A";"black";"red";"magnit";4;0;1;0;1;0
"2098";"5ec15cab0c15fc0358052c00";"BRAC2_vertLL_1st300";1;6;1160,42500000913;"A";1;0;NA;"A";"black";"red";"parity";8;0;1;0;0;1
"2102";"5ec15cab0c15fc0358052c00";"BRAC2_vertLL_1st300";1;7;1288,48500001186;"A";1;0;NA;"A";"black";"red";"magnit";1;0;1;0;0;0
"2106";"5ec15cab0c15fc0358052c00";"BRAC2_vertLL_1st300";1;8;2189,33999999717;"L";1;0;NA;"L";"black";"blue";"parity";7;0;1;1;1;0
"2110";"5ec15cab0c15fc0358052c00";"BRAC2_vertLL_1st300";1;9;1674,58999999508;"L";1;0;NA;"L";"black";"blue";"parity";1;0;0;0;0;0
"2114";"5ec15cab0c15fc0358052c00";"BRAC2_vertLL_1st300";1;10;1408,02999999141;"L";1;0;NA;"L";"black";"red";"parity";7;0;0;0;1;0
"2118";"5ec15cab0c15fc0358052c00";"BRAC2_vertLL_1st300";1;11;1208,18000000145;"L";1;0;NA;"L";"black";"blue";"magnit";8;0;1;0;1;0
"2122";"5ec15cab0c15fc0358052c00";"BRAC2_vertLL_1st300";1;12;2295,97500000091;"A";1;0;NA;"A";"black";"blue";"parity";6;0;1;1;0;0
"2126";"5ec15cab0c15fc0358052c00";"BRAC2_vertLL_1st300";1;13;1452,43999999366;"L";1;0;NA;"L";"black";"blue";"parity";9;0;0;1;0;0
"2130";"5ec15cab0c15fc0358052c00";"BRAC2_vertLL_1st300";1;14;772,165000002133;"L";1;0;NA;"L";"black";"blue";"magnit";6;0;1;0;0;0
"2134";"5ec15cab0c15fc0358052c00";"BRAC2_vertLL_1st300";1;15;1464,1100000008;"A";1;0;NA;"A";"black";"red";"parity";2;0;1;1;1;0
"2138";"5ec15cab0c15fc0358052c00";"BRAC2_vertLL_1st300";1;16;1182,66500000027;"L";1;0;NA;"L";"black";"blue";"parity";3;0;0;1;1;0
"2142";"5ec15cab0c15fc0358052c00";"BRAC2_vertLL_1st300";1;17;615,76500000956;"A";1;0;NA;"A";"black";"blue";"magnit";4;0;1;1;0;0
"2146";"5ec15cab0c15fc0358052c00";"BRAC2_vertLL_1st300";1;18;622,255000009318;"A";1;0;NA;"A";"black";"blue";"magnit";1;0;0;0;0;0
"2150";"5ec15cab0c15fc0358052c00";"BRAC2_vertLL_1st300";1;19;1404,2599999957;"A";1;0;NA;"A";"black";"red";"parity";2;0;1;0;1;0
"2154";"5ec15cab0c15fc0358052c00";"BRAC2_vertLL_1st300";1;20;1464,54499999527;"L";1;0;NA;"L";"black";"red";"magnit";8;0;1;1;0;0
"2158";"5ec15cab0c15fc0358052c00";"BRAC2_vertLL_1st300";1;21;905,145000011544;"A";1;0;NA;"A";"black";"red";"magnit";2;0;0;1;0;0
"2162";"5ec15cab0c15fc0358052c00";"BRAC2_vertLL_1st300";1;22;513,835000005201;"A";1;0;NA;"A";"black";"blue";"magnit";3;0;0;0;1;0
"2166";"5ec15cab0c15fc0358052c00";"BRAC2_vertLL_1st300";1;23;468,170000007376;"L";1;0;NA;"L";"black";"red";"magnit";8;0;0;1;1;0
"2170";"5ec15cab0c15fc0358052c00";"BRAC2_vertLL_1st300";1;24;666,070000006584;"L";1;0;NA;"L";"black";"blue";"magnit";9;0;0;0;1;0
"2174";"5ec15cab0c15fc0358052c00";"BRAC2_vertLL_1st300";1;25;1278,2850000076;"A";1;0;NA;"A";"black";"blue";"parity";4;0;1;1;0;0
"2178";"5ec15cab0c15fc0358052c00";"BRAC2_vertLL_1st300";1;26;1259,28500000737;"A";1;0;NA;"A";"black";"blue";"magnit";1;0;1;0;0;0
"2182";"5ec15cab0c15fc0358052c00";"BRAC2_vertLL_1st300";1;27;506,22999999905;"L";1;0;NA;"L";"black";"red";"magnit";8;0;0;1;1;0
"2186";"5ec15cab0c15fc0358052c00";"BRAC2_vertLL_1st300";1;28;570,139999996172;"A";1;0;NA;"A";"black";"red";"magnit";4;0;0;1;0;0
"2190";"5ec15cab0c15fc0358052c00";"BRAC2_vertLL_1st300";1;29;560,945000004722;"L";1;0;NA;"L";"black";"blue";"magnit";8;0;0;1;1;0
"2194";"5ec15cab0c15fc0358052c00";"BRAC2_vertLL_1st300";1;30;630,304999998771;"A";1;0;NA;"A";"black";"red";"magnit";4;0;0;1;1;0
"2198";"5ec15cab0c15fc0358052c00";"BRAC2_vertLL_1st300";1;31;702,384999996866;"A";1;0;NA;"A";"black";"blue";"magnit";1;0;0;0;1;0
"2202";"5ec15cab0c15fc0358052c00";"BRAC2_vertLL_1st300";1;32;1204,23499999742;"A";1;0;NA;"A";"black";"red";"parity";4;0;1;0;1;0
"2206";"5ec15cab0c15fc0358052c00";"BRAC2_vertLL_1st300";1;33;482,974999991711;"L";1;0;NA;"L";"black";"red";"parity";9;0;0;1;0;0
"2210";"5ec15cab0c15fc0358052c00";"BRAC2_vertLL_1st300";1;34;766,689999989467;"L";1;0;NA;"L";"black";"red";"parity";1;0;0;0;0;0
"2214";"5ec15cab0c15fc0358052c00";"BRAC2_vertLL_1st300";1;35;784,149999992223;"L";1;0;NA;"L";"black";"red";"parity";7;0;0;0;0;0
"2218";"5ec15cab0c15fc0358052c00";"BRAC2_vertLL_1st300";1;36;697,885000001406;"A";1;0;NA;"A";"black";"blue";"parity";6;0;0;1;1;0
"2222";"5ec15cab0c15fc0358052c00";"BRAC2_vertLL_1st300";1;37;833,150000005844;"L";1;0;NA;"L";"black";"red";"parity";1;0;0;1;1;0
"2226";"5ec15cab0c15fc0358052c00";"BRAC2_vertLL_1st300";1;38;1535,51499999594;"L";1;0;NA;"L";"black";"red";"magnit";7;0;1;0;0;0
"2230";"5ec15cab0c15fc0358052c00";"BRAC2_vertLL_1st300";1;39;754,460000011022;"L";1;0;NA;"L";"black";"blue";"parity";1;0;1;0;1;0
"2234";"5ec15cab0c15fc0358052c00";"BRAC2_vertLL_1st300";1;40;664,635000008275;"L";1;0;NA;"L";"black";"blue";"parity";7;0;0;0;0;0
"2238";"5ec15cab0c15fc0358052c00";"BRAC2_vertLL_1st300";1;41;741,249999991851;"A";1;0;NA;"A";"black";"red";"magnit";2;0;1;1;1;0
"2242";"5ec15cab0c15fc0358052c00";"BRAC2_vertLL_1st300";1;42;1530,28500000073;"L";1;0;NA;"L";"black";"blue";"magnit";9;0;0;1;1;0
"2246";"5ec15cab0c15fc0358052c00";"BRAC2_vertLL_1st300";1;43;561,100000006263;"L";1;0;NA;"L";"black";"blue";"parity";7;0;1;0;0;0
"2250";"5ec15cab0c15fc0358052c00";"BRAC2_vertLL_1st300";1;44;857,069999998203;"A";1;0;NA;"A";"black";"red";"magnit";3;0;1;1;1;0
"2254";"5ec15cab0c15fc0358052c00";"BRAC2_vertLL_1st300";1;45;713,51999999024;"L";1;0;NA;"L";"black";"red";"magnit";9;0;0;1;0;0
"2258";"5ec15cab0c15fc0358052c00";"BRAC2_vertLL_1st300";1;46;478,400000007241;"L";1;0;NA;"L";"black";"blue";"magnit";8;0;0;0;1;0
"2262";"5ec15cab0c15fc0358052c00";"BRAC2_vertLL_1st300";1;47;534,595000004629;"A";1;0;NA;"A";"black";"blue";"magnit";2;0;0;1;0;0
"2266";"5ec15cab0c15fc0358052c00";"BRAC2_vertLL_1st300";1;48;527,750000008382;"A";1;0;NA;"A";"black";"red";"magnit";3;0;0;0;1;0
"2270";"5ec15cab0c15fc0358052c00";"BRAC2_vertLL_1st300";1;49;937,130000005709;"L";1;0;NA;"L";"black";"red";"parity";9;0;1;1;0;0
"2274";"5ec15cab0c15fc0358052c00";"BRAC2_vertLL_1st300";1;50;2057,3000000004;"L";1;0;NA;"L";"black";"red";"magnit";6;0;1;0;0;0
"2278";"5ec15cab0c15fc0358052c00";"BRAC2_vertLL_1st300";1;51;572,509999998147;"L";1;0;NA;"L";"black";"red";"parity";7;0;1;0;0;0
"2282";"5ec15cab0c15fc0358052c00";"BRAC2_vertLL_1st300";1;52;974,224999998114;"A";1;0;NA;"A";"black";"blue";"parity";8;0;0;1;1;0
"2286";"5ec15cab0c15fc0358052c00";"BRAC2_vertLL_1st300";1;53;2147,66000000236;"L";1;0;NA;"L";"black";"blue";"parity";1;0;0;1;0;0
"2290";"5ec15cab0c15fc0358052c00";"BRAC2_vertLL_1st300";1;54;899,529999995138;"L";1;0;NA;"L";"black";"blue";"magnit";9;0;1;0;0;0
"2294";"5ec15cab0c15fc0358052c00";"BRAC2_vertLL_1st300";1;55;2499,91299999994;NA;NA;1;1;"A";"black";"blue";"parity";6;0;1;1;0;0
"2298";"5ec15cab0c15fc0358052c00";"BRAC2_vertLL_1st300";1;56;753,809999994701;"A";1;1;NA;"L";"black";"blue";"magnit";7;0;1;1;0;1
"2302";"5ec15cab0c15fc0358052c00";"BRAC2_vertLL_1st300";1;57;851,09999999986;"L";1;0;NA;"L";"black";"red";"parity";9;0;1;0;1;1
"2306";"5ec15cab0c15fc0358052c00";"BRAC2_vertLL_1st300";1;58;575,454999998328;"A";1;0;NA;"A";"black";"red";"magnit";1;0;1;1;0;0
"2310";"5ec15cab0c15fc0358052c00";"BRAC2_vertLL_1st300";1;59;1133,74499999918;"A";1;0;NA;"A";"black";"red";"magnit";2;0;0;0;0;0
"2314";"5ec15cab0c15fc0358052c00";"BRAC2_vertLL_1st300";1;60;1288,08499999286;"L";1;0;NA;"L";"black";"blue";"magnit";7;0;0;1;1;0
"2318";"5ec15cab0c15fc0358052c00";"BRAC2_vertLL_1st300";1;61;1487,62999998871;"L";1;0;NA;"L";"black";"red";"parity";3;0;1;0;1;0
"2322";"5ec15cab0c15fc0358052c00";"BRAC2_vertLL_1st300";1;62;759,145000003628;"L";1;0;NA;"L";"black";"blue";"parity";9;0;0;0;1;0
"2326";"5ec15cab0c15fc0358052c00";"BRAC2_vertLL_1st300";1;63;580,34499999485;"A";1;0;NA;"A";"black";"red";"parity";4;0;0;1;1;0
"2330";"5ec15cab0c15fc0358052c00";"BRAC2_vertLL_1st300";1;64;607,654999999795;"A";1;0;NA;"A";"black";"red";"parity";6;0;0;0;0;0
"2334";"5ec15cab0c15fc0358052c00";"BRAC2_vertLL_1st300";1;65;545,385000004899;"A";1;0;NA;"A";"black";"blue";"magnit";2;0;1;0;1;0
"2338";"5ec15cab0c15fc0358052c00";"BRAC2_vertLL_1st300";1;66;1529,55000000657;"A";1;0;NA;"A";"black";"red";"magnit";3;0;0;0;1;0
"2342";"5ec15cab0c15fc0358052c00";"BRAC2_vertLL_1st300";1;67;553,284999987227;"L";1;0;NA;"L";"black";"red";"magnit";9;0;0;1;0;0
"2346";"5ec15cab0c15fc0358052c00";"BRAC2_vertLL_1st300";1;68;759,995000000345;"L";1;0;NA;"L";"black";"blue";"magnit";7;0;0;0;1;0
"2350";"5ec15cab0c15fc0358052c00";"BRAC2_vertLL_1st300";1;69;1132,12999999814;"L";1;0;NA;"L";"black";"red";"parity";1;0;1;0;1;0
"2354";"5ec15cab0c15fc0358052c00";"BRAC2_vertLL_1st300";1;70;1080,63500000571;"A";1;0;NA;"A";"black";"red";"parity";8;0;0;1;0;0
"2358";"5ec15cab0c15fc0358052c00";"BRAC2_vertLL_1st300";1;71;463,350000005448;"A";1;0;NA;"A";"black";"blue";"magnit";3;0;1;0;1;0
"2362";"5ec15cab0c15fc0358052c00";"BRAC2_vertLL_1st300";1;72;1288,97999999754;"L";1;0;NA;"L";"black";"red";"magnit";9;0;0;1;1;0
"2366";"5ec15cab0c15fc0358052c00";"BRAC2_vertLL_1st300";1;73;704,384999989998;"A";1;0;NA;"A";"black";"blue";"magnit";3;0;0;1;1;0
"2370";"5ec15cab0c15fc0358052c00";"BRAC2_vertLL_1st300";1;74;878,340000010212;"A";1;0;NA;"A";"black";"blue";"parity";2;0;1;0;0;0
"2374";"5ec15cab0c15fc0358052c00";"BRAC2_vertLL_1st300";1;75;2103,95499999868;"L";1;1;NA;"A";"black";"blue";"parity";8;0;0;0;0;0
"2378";"5ec15cab0c15fc0358052c00";"BRAC2_vertLL_1st300";1;76;738,694999992731;"L";1;0;NA;"L";"black";"red";"parity";3;0;0;1;1;1
"2382";"5ec15cab0c15fc0358052c00";"BRAC2_vertLL_1st300";1;77;549,25500000536;"A";1;0;NA;"A";"black";"blue";"magnit";4;0;1;1;1;0
"2386";"5ec15cab0c15fc0358052c00";"BRAC2_vertLL_1st300";1;78;1145,10500000324;"A";1;0;NA;"A";"black";"blue";"parity";8;0;1;0;0;0
"2390";"5ec15cab0c15fc0358052c00";"BRAC2_vertLL_1st300";1;79;885,374999998021;"L";1;0;NA;"L";"black";"red";"magnit";6;0;1;1;1;0
"2394";"5ec15cab0c15fc0358052c00";"BRAC2_vertLL_1st300";1;80;1569,54500000575;"A";1;0;NA;"A";"black";"blue";"parity";4;0;1;1;1;0
"2398";"5ec15cab0c15fc0358052c00";"BRAC2_vertLL_1st300";1;81;1391,83500000217;"A";1;0;NA;"A";"black";"red";"parity";6;0;0;0;1;0
"2402";"5ec15cab0c15fc0358052c00";"BRAC2_vertLL_1st300";1;82;1809,52500000421;"L";1;0;NA;"L";"black";"red";"magnit";7;0;1;1;0;0
"2406";"5ec15cab0c15fc0358052c00";"BRAC2_vertLL_1st300";1;83;1350,24499999417;"L";1;0;NA;"L";"black";"blue";"parity";3;0;1;0;1;0
"2410";"5ec15cab0c15fc0358052c00";"BRAC2_vertLL_1st300";1;84;676,575000004959;"A";1;0;NA;"A";"black";"blue";"magnit";2;0;1;1;0;0
"2414";"5ec15cab0c15fc0358052c00";"BRAC2_vertLL_1st300";1;85;649,340000003576;"A";1;0;NA;"A";"black";"blue";"magnit";4;0;0;0;0;0
"2418";"5ec15cab0c15fc0358052c00";"BRAC2_vertLL_1st300";1;86;1464,724999998;"L";1;0;NA;"L";"black";"blue";"parity";9;0;1;1;0;0
"2422";"5ec15cab0c15fc0358052c00";"BRAC2_vertLL_1st300";1;87;1280,04499999224;"A";1;0;NA;"A";"black";"red";"parity";2;0;0;1;1;0
"2426";"5ec15cab0c15fc0358052c00";"BRAC2_vertLL_1st300";1;88;605,744999993476;"A";1;0;NA;"A";"black";"red";"magnit";1;0;1;0;0;0
"2430";"5ec15cab0c15fc0358052c00";"BRAC2_vertLL_1st300";1;89;2104,12499999802;"L";1;0;NA;"L";"black";"blue";"parity";3;0;1;1;1;0
"2434";"5ec15cab0c15fc0358052c00";"BRAC2_vertLL_1st300";1;90;946,274999994785;"L";1;0;NA;"L";"black";"red";"magnit";6;0;1;0;1;0
"2438";"5ec15cab0c15fc0358052c00";"BRAC2_vertLL_1st300";1;91;759,344999998575;"A";1;0;NA;"A";"black";"red";"parity";4;0;1;1;0;0
"2442";"5ec15cab0c15fc0358052c00";"BRAC2_vertLL_1st300";1;92;1262,72499999322;"A";1;0;NA;"A";"black";"red";"parity";6;0;0;0;0;0
"2446";"5ec15cab0c15fc0358052c00";"BRAC2_vertLL_1st300";1;93;1693,31000000238;"L";1;0;NA;"L";"black";"red";"parity";3;0;0;1;0;0
"2450";"5ec15cab0c15fc0358052c00";"BRAC2_vertLL_1st300";1;94;1002,3349999974;"L";1;0;NA;"L";"black";"blue";"magnit";6;0;1;0;1;0
"2454";"5ec15cab0c15fc0358052c00";"BRAC2_vertLL_1st300";1;95;843,769999992219;"L";1;0;NA;"L";"black";"red";"magnit";7;0;0;0;1;0
"2459";"5ec15cab0c15fc0358052c00";"BRAC2_vertLL_1st300";2;0;1119,89499999618;"A";1;0;NA;"A";"black";"blue";"parity";8;300;99;99;99;99
"2463";"5ec15cab0c15fc0358052c00";"BRAC2_vertLL_1st300";2;1;770,590000000084;"A";1;0;NA;"A";"black";"red";"parity";2;300;0;0;1;0
"2467";"5ec15cab0c15fc0358052c00";"BRAC2_vertLL_1st300";2;2;1578,80499999737;"L";1;0;NA;"L";"black";"red";"parity";7;300;0;1;0;0
"2471";"5ec15cab0c15fc0358052c00";"BRAC2_vertLL_1st300";2;3;524,869999993825;"A";1;0;NA;"A";"black";"blue";"magnit";2;300;1;1;1;0
"2475";"5ec15cab0c15fc0358052c00";"BRAC2_vertLL_1st300";2;4;687,570000009146;"A";1;0;NA;"A";"black";"red";"magnit";3;300;0;0;1;0
"2479";"5ec15cab0c15fc0358052c00";"BRAC2_vertLL_1st300";2;5;1347,97499999695;"A";1;0;NA;"A";"black";"red";"parity";8;300;1;0;0;0
"2483";"5ec15cab0c15fc0358052c00";"BRAC2_vertLL_1st300";2;6;1390,40499999828;"L";1;0;NA;"L";"black";"blue";"parity";7;300;0;1;1;0
"2487";"5ec15cab0c15fc0358052c00";"BRAC2_vertLL_1st300";2;7;1431,40499999572;"L";1;0;NA;"L";"black";"blue";"parity";9;300;0;0;0;0
"2491";"5ec15cab0c15fc0358052c00";"BRAC2_vertLL_1st300";2;8;854,64000000502;"A";1;0;NA;"A";"black";"blue";"magnit";4;300;1;1;0;0
"2495";"5ec15cab0c15fc0358052c00";"BRAC2_vertLL_1st300";2;9;1269,1899999918;"L";1;0;NA;"L";"black";"blue";"parity";1;300;1;1;0;0
"2499";"5ec15cab0c15fc0358052c00";"BRAC2_vertLL_1st300";2;10;1937,74999999732;"A";1;0;NA;"A";"black";"blue";"parity";6;300;0;1;0;0
"2503";"5ec15cab0c15fc0358052c00";"BRAC2_vertLL_1st300";2;11;932,89999999979;"L";1;0;NA;"L";"black";"blue";"parity";1;300;0;1;0;0
"2507";"5ec15cab0c15fc0358052c00";"BRAC2_vertLL_1st300";2;12;543,859999990673;"L";1;0;NA;"L";"black";"blue";"magnit";6;300;1;0;0;0
"2511";"5ec15cab0c15fc0358052c00";"BRAC2_vertLL_1st300";2;13;738,169999996899;"L";1;0;NA;"L";"black";"blue";"parity";3;300;1;0;0;0
"2515";"5ec15cab0c15fc0358052c00";"BRAC2_vertLL_1st300";2;14;541,884999998729;"A";1;0;NA;"A";"black";"red";"magnit";2;300;1;1;1;0
"2519";"5ec15cab0c15fc0358052c00";"BRAC2_vertLL_1st300";2;15;607,795000003534;"L";1;0;NA;"L";"black";"blue";"magnit";7;300;0;1;1;0
"2523";"5ec15cab0c15fc0358052c00";"BRAC2_vertLL_1st300";2;16;463,354999999865;"A";1;0;NA;"A";"black";"red";"magnit";4;300;0;1;1;0
"2527";"5ec15cab0c15fc0358052c00";"BRAC2_vertLL_1st300";2;17;645,369999998366;"A";1;0;NA;"A";"black";"red";"parity";6;300;1;0;0;0
"2531";"5ec15cab0c15fc0358052c00";"BRAC2_vertLL_1st300";2;18;571,825000006356;"A";1;0;NA;"A";"black";"red";"magnit";2;300;1;0;0;0
"2535";"5ec15cab0c15fc0358052c00";"BRAC2_vertLL_1st300";2;19;542,594999991707;"A";1;0;NA;"A";"black";"red";"magnit";3;300;0;0;0;0
"2539";"5ec15cab0c15fc0358052c00";"BRAC2_vertLL_1st300";2;20;456,609999993816;"A";1;0;NA;"A";"black";"red";"magnit";1;300;0;0;0;0
"2543";"5ec15cab0c15fc0358052c00";"BRAC2_vertLL_1st300";2;21;447,325000001001;"A";1;0;NA;"A";"black";"blue";"magnit";3;300;0;0;1;0
"2547";"5ec15cab0c15fc0358052c00";"BRAC2_vertLL_1st300";2;22;747,974999991129;"A";1;0;NA;"A";"black";"blue";"parity";2;300;1;0;0;0
"2551";"5ec15cab0c15fc0358052c00";"BRAC2_vertLL_1st300";2;23;484,534999995958;"A";1;0;NA;"A";"black";"blue";"magnit";4;300;1;0;0;0
"2555";"5ec15cab0c15fc0358052c00";"BRAC2_vertLL_1st300";2;24;433,730000004289;"L";1;0;NA;"L";"black";"blue";"magnit";8;300;0;1;0;0
"2559";"5ec15cab0c15fc0358052c00";"BRAC2_vertLL_1st300";2;25;673,849999991944;"L";1;0;NA;"L";"black";"blue";"parity";1;300;1;0;0;0
"2563";"5ec15cab0c15fc0358052c00";"BRAC2_vertLL_1st300";2;26;1335,42000000307;"L";1;0;NA;"L";"black";"red";"magnit";8;300;1;0;1;0
"2567";"5ec15cab0c15fc0358052c00";"BRAC2_vertLL_1st300";2;27;1633,06500000181;"L";1;0;NA;"L";"black";"blue";"parity";9;300;1;0;1;0
"2571";"5ec15cab0c15fc0358052c00";"BRAC2_vertLL_1st300";2;28;736,509999987902;"A";1;0;NA;"A";"black";"blue";"parity";6;300;0;1;0;0
"2575";"5ec15cab0c15fc0358052c00";"BRAC2_vertLL_1st300";2;29;554,56000000413;"A";1;0;NA;"A";"black";"red";"parity";4;300;0;0;1;0
"2579";"5ec15cab0c15fc0358052c00";"BRAC2_vertLL_1st300";2;30;790,585000009742;"L";1;0;NA;"L";"black";"red";"parity";1;300;0;1;0;0
"2583";"5ec15cab0c15fc0358052c00";"BRAC2_vertLL_1st300";2;31;463,220000005094;"A";1;0;NA;"A";"black";"blue";"magnit";3;300;1;1;1;0
"2587";"5ec15cab0c15fc0358052c00";"BRAC2_vertLL_1st300";2;32;1548,23000000033;"A";1;0;NA;"A";"black";"blue";"parity";2;300;1;0;0;0
"2591";"5ec15cab0c15fc0358052c00";"BRAC2_vertLL_1st300";2;33;468,819999994594;"A";1;0;NA;"A";"black";"blue";"magnit";1;300;1;0;0;0
"2595";"5ec15cab0c15fc0358052c00";"BRAC2_vertLL_1st300";2;34;828,154999995604;"L";1;0;NA;"L";"black";"red";"parity";3;300;1;1;1;0
"2599";"5ec15cab0c15fc0358052c00";"BRAC2_vertLL_1st300";2;35;515,375000002678;"A";1;0;NA;"A";"black";"blue";"parity";4;300;0;1;1;0
"2603";"5ec15cab0c15fc0358052c00";"BRAC2_vertLL_1st300";2;36;565,395000012359;"A";1;1;NA;"L";"black";"red";"parity";3;300;0;1;1;0
"2607";"5ec15cab0c15fc0358052c00";"BRAC2_vertLL_1st300";2;37;759,444999988773;"A";1;0;NA;"A";"black";"red";"magnit";4;300;1;1;0;1
"2611";"5ec15cab0c15fc0358052c00";"BRAC2_vertLL_1st300";2;38;705,350000003818;"L";1;0;NA;"L";"black";"red";"magnit";9;300;0;1;0;0
"2615";"5ec15cab0c15fc0358052c00";"BRAC2_vertLL_1st300";2;39;541,505000001052;"A";1;0;NA;"A";"black";"blue";"magnit";1;300;0;1;1;0
"2619";"5ec15cab0c15fc0358052c00";"BRAC2_vertLL_1st300";2;40;536,874999990687;"L";1;0;NA;"L";"black";"blue";"magnit";9;300;0;1;0;0
"2623";"5ec15cab0c15fc0358052c00";"BRAC2_vertLL_1st300";2;41;1099,78499999852;"L";1;0;NA;"L";"black";"red";"parity";3;300;1;0;1;0
"2627";"5ec15cab0c15fc0358052c00";"BRAC2_vertLL_1st300";2;42;783,915000007255;"A";1;0;NA;"A";"black";"blue";"parity";8;300;0;1;1;0
"2631";"5ec15cab0c15fc0358052c00";"BRAC2_vertLL_1st300";2;43;489,744999998948;"A";1;0;NA;"A";"black";"red";"magnit";2;300;1;0;1;0
"2635";"5ec15cab0c15fc0358052c00";"BRAC2_vertLL_1st300";2;44;1027,60000000126;"A";1;0;NA;"A";"black";"blue";"magnit";1;300;0;0;1;0
"2639";"5ec15cab0c15fc0358052c00";"BRAC2_vertLL_1st300";2;45;1364,56499999622;"L";1;0;NA;"L";"black";"red";"parity";9;300;1;1;1;0
"2643";"5ec15cab0c15fc0358052c00";"BRAC2_vertLL_1st300";2;46;2094,93000000657;"A";1;0;NA;"A";"black";"blue";"parity";4;300;0;1;1;0
"2647";"5ec15cab0c15fc0358052c00";"BRAC2_vertLL_1st300";2;47;482,524999999441;"L";1;0;NA;"L";"black";"blue";"magnit";9;300;1;1;0;0
"2651";"5ec15cab0c15fc0358052c00";"BRAC2_vertLL_1st300";2;48;678,200000009383;"L";1;0;NA;"L";"black";"red";"magnit";6;300;0;0;1;0
"2655";"5ec15cab0c15fc0358052c00";"BRAC2_vertLL_1st300";2;49;483,834999991814;"L";1;0;NA;"L";"black";"red";"magnit";8;300;0;0;0;0
"2659";"5ec15cab0c15fc0358052c00";"BRAC2_vertLL_1st300";2;50;1265,47500000743;"A";1;0;NA;"A";"black";"red";"parity";6;300;1;1;0;0
"2663";"5ec15cab0c15fc0358052c00";"BRAC2_vertLL_1st300";2;51;1198,2399999979;"L";1;0;NA;"L";"black";"blue";"parity";3;300;0;1;1;0
"2667";"5ec15cab0c15fc0358052c00";"BRAC2_vertLL_1st300";2;52;1271,22999999847;"L";1;0;NA;"L";"black";"red";"magnit";6;300;1;0;1;0
"2671";"5ec15cab0c15fc0358052c00";"BRAC2_vertLL_1st300";2;53;2218,89499999816;"L";1;0;NA;"L";"black";"red";"parity";9;300;1;0;0;0
"2675";"5ec15cab0c15fc0358052c00";"BRAC2_vertLL_1st300";2;54;964,204999996582;"A";1;0;NA;"A";"black";"red";"parity";8;300;0;1;0;0
"2679";"5ec15cab0c15fc0358052c00";"BRAC2_vertLL_1st300";2;55;629,125000006752;"L";1;0;NA;"L";"black";"blue";"magnit";7;300;1;1;1;0
"2683";"5ec15cab0c15fc0358052c00";"BRAC2_vertLL_1st300";2;56;668,20000000007;"L";1;0;NA;"L";"black";"blue";"magnit";6;300;0;0;0;0
"2687";"5ec15cab0c15fc0358052c00";"BRAC2_vertLL_1st300";2;57;505,380000002333;"L";1;0;NA;"L";"black";"red";"magnit";9;300;0;0;1;0
"2691";"5ec15cab0c15fc0358052c00";"BRAC2_vertLL_1st300";2;58;502,305000001797;"L";1;0;NA;"L";"black";"blue";"magnit";8;300;0;0;1;0
"2695";"5ec15cab0c15fc0358052c00";"BRAC2_vertLL_1st300";2;59;607,829999993555;"L";1;0;NA;"L";"black";"red";"magnit";7;300;0;0;1;0
"2699";"5ec15cab0c15fc0358052c00";"BRAC2_vertLL_1st300";2;60;569,690000003902;"A";1;0;NA;"A";"black";"red";"magnit";1;300;0;1;0;0
"2703";"5ec15cab0c15fc0358052c00";"BRAC2_vertLL_1st300";2;61;1019,52000000165;"A";1;0;NA;"A";"black";"red";"magnit";3;300;0;0;0;0
"2707";"5ec15cab0c15fc0358052c00";"BRAC2_vertLL_1st300";2;62;1603,70999999577;"A";1;0;NA;"A";"black";"blue";"magnit";2;300;0;0;1;0
"2711";"5ec15cab0c15fc0358052c00";"BRAC2_vertLL_1st300";2;63;491,069999989122;"L";1;0;NA;"L";"black";"red";"magnit";7;300;0;1;1;0
"2715";"5ec15cab0c15fc0358052c00";"BRAC2_vertLL_1st300";2;64;2310,81500000437;"A";1;0;NA;"A";"black";"blue";"parity";4;300;1;1;1;0
"2719";"5ec15cab0c15fc0358052c00";"BRAC2_vertLL_1st300";2;65;619,72999999125;"L";1;0;NA;"L";"black";"blue";"magnit";8;300;1;1;0;0
"2723";"5ec15cab0c15fc0358052c00";"BRAC2_vertLL_1st300";2;66;674,014999996871;"L";1;0;NA;"L";"black";"red";"parity";1;300;1;0;1;0
"2727";"5ec15cab0c15fc0358052c00";"BRAC2_vertLL_1st300";2;67;1014,40500000899;"A";1;0;NA;"A";"black";"red";"magnit";4;300;1;1;0;0
"2731";"5ec15cab0c15fc0358052c00";"BRAC2_vertLL_1st300";2;68;982,535000002827;"A";1;0;NA;"A";"black";"red";"parity";2;300;1;0;0;0
"2735";"5ec15cab0c15fc0358052c00";"BRAC2_vertLL_1st300";2;69;503,179999999702;"L";1;0;NA;"L";"black";"blue";"magnit";9;300;1;1;1;0
"2739";"5ec15cab0c15fc0358052c00";"BRAC2_vertLL_1st300";2;70;1732,04499999702;"A";1;0;NA;"A";"black";"blue";"parity";6;300;1;1;0;0
"2743";"5ec15cab0c15fc0358052c00";"BRAC2_vertLL_1st300";2;71;1711,98999999615;"L";1;0;NA;"L";"black";"blue";"parity";7;300;0;1;0;0
"2747";"5ec15cab0c15fc0358052c00";"BRAC2_vertLL_1st300";2;72;603,705000001355;"L";1;0;NA;"L";"black";"red";"magnit";9;300;1;0;1;0
"2751";"5ec15cab0c15fc0358052c00";"BRAC2_vertLL_1st300";2;73;930,064999993192;"L";1;0;NA;"L";"black";"blue";"parity";3;300;1;0;1;0
"2755";"5ec15cab0c15fc0358052c00";"BRAC2_vertLL_1st300";2;74;686,549999998533;"L";1;0;NA;"L";"black";"blue";"magnit";6;300;1;0;0;0
"2759";"5ec15cab0c15fc0358052c00";"BRAC2_vertLL_1st300";2;75;729,794999992009;"L";1;0;NA;"L";"black";"blue";"parity";7;300;1;0;0;0
"2763";"5ec15cab0c15fc0358052c00";"BRAC2_vertLL_1st300";2;76;605,174999989686;"A";1;0;NA;"A";"black";"red";"parity";6;300;0;1;1;0
"2767";"5ec15cab0c15fc0358052c00";"BRAC2_vertLL_1st300";2;77;997,585000004619;"A";1;0;NA;"A";"black";"red";"magnit";1;300;1;0;0;0
"2771";"5ec15cab0c15fc0358052c00";"BRAC2_vertLL_1st300";2;78;1461,24999999302;"A";1;0;NA;"A";"black";"red";"parity";8;300;1;0;0;0
"2775";"5ec15cab0c15fc0358052c00";"BRAC2_vertLL_1st300";2;79;1644,44500001264;"A";1;1;NA;"L";"black";"red";"parity";7;300;0;1;0;0
"2779";"5ec15cab0c15fc0358052c00";"BRAC2_vertLL_1st300";2;80;809,84499999613;"L";1;0;NA;"L";"black";"red";"parity";1;300;0;0;0;1
"2783";"5ec15cab0c15fc0358052c00";"BRAC2_vertLL_1st300";2;81;1195,074999996;"L";1;0;NA;"L";"black";"red";"parity";7;300;0;0;0;0
"2787";"5ec15cab0c15fc0358052c00";"BRAC2_vertLL_1st300";2;82;1106,87499999767;"A";1;0;NA;"A";"black";"blue";"parity";2;300;0;1;1;0
"2791";"5ec15cab0c15fc0358052c00";"BRAC2_vertLL_1st300";2;83;567,994999990333;"A";1;0;NA;"A";"black";"blue";"magnit";4;300;1;0;0;0
"2795";"5ec15cab0c15fc0358052c00";"BRAC2_vertLL_1st300";2;84;551,544999994803;"L";1;0;NA;"L";"black";"red";"magnit";8;300;0;1;1;0
"2799";"5ec15cab0c15fc0358052c00";"BRAC2_vertLL_1st300";2;85;1107,2400000121;"A";1;0;NA;"A";"black";"red";"parity";4;300;1;1;0;0
"2803";"5ec15cab0c15fc0358052c00";"BRAC2_vertLL_1st300";2;86;781,469999987166;"L";1;0;NA;"L";"black";"red";"magnit";7;300;1;1;0;0
"2807";"5ec15cab0c15fc0358052c00";"BRAC2_vertLL_1st300";2;87;558,690000005299;"A";1;0;NA;"A";"black";"blue";"magnit";2;300;0;1;1;0
"2811";"5ec15cab0c15fc0358052c00";"BRAC2_vertLL_1st300";2;88;587,499999994179;"A";1;0;NA;"A";"black";"blue";"magnit";3;300;0;0;0;0
"2815";"5ec15cab0c15fc0358052c00";"BRAC2_vertLL_1st300";2;89;1674,06499999925;"L";1;0;NA;"L";"black";"red";"parity";9;300;1;1;1;0
"2819";"5ec15cab0c15fc0358052c00";"BRAC2_vertLL_1st300";2;90;1104,03000000224;"L";1;0;NA;"L";"black";"blue";"magnit";7;300;1;0;1;0
"2823";"5ec15cab0c15fc0358052c00";"BRAC2_vertLL_1st300";2;91;1485,24500000349;"L";1;0;NA;"L";"black";"blue";"parity";9;300;1;0;0;0
"2827";"5ec15cab0c15fc0358052c00";"BRAC2_vertLL_1st300";2;92;1744,36499999138;"A";1;0;NA;"A";"black";"red";"parity";2;300;0;1;1;0
"2831";"5ec15cab0c15fc0358052c00";"BRAC2_vertLL_1st300";2;93;1474,8649999965;"L";1;0;NA;"L";"black";"red";"magnit";6;300;1;1;0;0
"2835";"5ec15cab0c15fc0358052c00";"BRAC2_vertLL_1st300";2;94;857,385000010254;"A";1;0;NA;"A";"black";"red";"parity";4;300;1;1;0;0
"2839";"5ec15cab0c15fc0358052c00";"BRAC2_vertLL_1st300";2;95;920,330000008107;"A";1;0;NA;"A";"black";"blue";"parity";8;300;0;0;1;0
"2844";"5ec15cab0c15fc0358052c00";"BRAC2_vertLL_1st300";3;0;807,029999996303;"A";1;1;NA;"L";"black";"blue";"parity";3;0;99;99;99;99
"2848";"5ec15cab0c15fc0358052c00";"BRAC2_vertLL_1st300";3;1;510,525000005262;"L";1;0;NA;"L";"black";"red";"magnit";8;0;1;0;1;1
"2852";"5ec15cab0c15fc0358052c00";"BRAC2_vertLL_1st300";3;2;571,974999998696;"A";1;0;NA;"A";"black";"red";"magnit";1;0;0;1;0;0
"2856";"5ec15cab0c15fc0358052c00";"BRAC2_vertLL_1st300";3;3;1067,995000005;"L";1;0;NA;"L";"black";"red";"parity";3;0;1;1;0;0
"2860";"5ec15cab0c15fc0358052c00";"BRAC2_vertLL_1st300";3;4;610,419999997364;"L";1;0;NA;"L";"black";"blue";"magnit";8;0;1;0;1;0
"2864";"5ec15cab0c15fc0358052c00";"BRAC2_vertLL_1st300";3;5;506,185000005644;"A";1;0;NA;"A";"black";"red";"magnit";1;0;0;1;1;0
"2868";"5ec15cab0c15fc0358052c00";"BRAC2_vertLL_1st300";3;6;533,705000008922;"A";1;0;NA;"A";"black";"red";"magnit";4;0;0;0;0;0
"2872";"5ec15cab0c15fc0358052c00";"BRAC2_vertLL_1st300";3;7;1064,1999999932;"L";1;0;NA;"L";"black";"red";"magnit";8;0;0;1;0;0
"2876";"5ec15cab0c15fc0358052c00";"BRAC2_vertLL_1st300";3;8;444,91999999457;"A";1;0;NA;"A";"black";"red";"magnit";4;0;0;1;0;0
"2880";"5ec15cab0c15fc0358052c00";"BRAC2_vertLL_1st300";3;9;596,269999994431;"L";1;0;NA;"L";"black";"red";"magnit";7;0;0;1;0;0
"2884";"5ec15cab0c15fc0358052c00";"BRAC2_vertLL_1st300";3;10;659,955000010086;"L";1;0;NA;"L";"black";"blue";"magnit";6;0;0;0;1;0
"2888";"5ec15cab0c15fc0358052c00";"BRAC2_vertLL_1st300";3;11;730,605000004172;"L";1;0;NA;"L";"black";"red";"parity";3;0;1;0;1;0
"2892";"5ec15cab0c15fc0358052c00";"BRAC2_vertLL_1st300";3;12;629,230000005802;"L";1;0;NA;"L";"black";"blue";"parity";7;0;0;0;1;0
"2896";"5ec15cab0c15fc0358052c00";"BRAC2_vertLL_1st300";3;13;1173,21999999695;"A";1;0;NA;"A";"black";"red";"parity";4;0;0;1;1;0
"2900";"5ec15cab0c15fc0358052c00";"BRAC2_vertLL_1st300";3;14;694,394999998622;"A";1;1;NA;"L";"black";"blue";"magnit";6;0;1;1;1;0
"2904";"5ec15cab0c15fc0358052c00";"BRAC2_vertLL_1st300";3;15;643,565000005765;"L";1;0;NA;"L";"black";"blue";"magnit";8;0;0;0;0;1
"2908";"5ec15cab0c15fc0358052c00";"BRAC2_vertLL_1st300";3;16;1209,96500000195;"L";1;0;NA;"L";"black";"red";"parity";7;0;1;0;1;0
"2912";"5ec15cab0c15fc0358052c00";"BRAC2_vertLL_1st300";3;17;1528,52999999584;"A";1;0;NA;"A";"black";"blue";"parity";4;0;0;1;1;0
"2916";"5ec15cab0c15fc0358052c00";"BRAC2_vertLL_1st300";3;18;565,22000000393;"L";1;0;NA;"L";"black";"blue";"parity";7;0;0;1;0;0
"2920";"5ec15cab0c15fc0358052c00";"BRAC2_vertLL_1st300";3;19;469,335000001825;"L";1;0;NA;"L";"black";"red";"magnit";9;0;1;0;1;0
"2924";"5ec15cab0c15fc0358052c00";"BRAC2_vertLL_1st300";3;20;723,48000000068;"A";1;0;NA;"A";"black";"red";"parity";6;0;1;1;0;0
"2928";"5ec15cab0c15fc0358052c00";"BRAC2_vertLL_1st300";3;21;527,099999992177;"L";1;0;NA;"L";"black";"blue";"magnit";8;0;1;1;1;0
"2932";"5ec15cab0c15fc0358052c00";"BRAC2_vertLL_1st300";3;22;771,155000009574;"L";1;0;NA;"L";"black";"blue";"parity";3;0;1;0;0;0
"2936";"5ec15cab0c15fc0358052c00";"BRAC2_vertLL_1st300";3;23;515,989999999758;"A";1;0;NA;"A";"black";"red";"parity";4;0;0;1;1;0
"2940";"5ec15cab0c15fc0358052c00";"BRAC2_vertLL_1st300";3;24;535,250000000698;"L";1;0;NA;"L";"black";"red";"magnit";6;0;1;1;0;0
"2944";"5ec15cab0c15fc0358052c00";"BRAC2_vertLL_1st300";3;25;793,655000001192;"A";1;0;NA;"A";"black";"red";"parity";2;0;1;1;0;0
"2948";"5ec15cab0c15fc0358052c00";"BRAC2_vertLL_1st300";3;26;890,565000008792;"L";1;0;NA;"L";"black";"blue";"parity";9;0;0;1;1;0
"2952";"5ec15cab0c15fc0358052c00";"BRAC2_vertLL_1st300";3;27;1520,79000000958;"A";1;0;NA;"A";"black";"blue";"parity";4;0;0;1;0;0
"2956";"5ec15cab0c15fc0358052c00";"BRAC2_vertLL_1st300";3;28;811,110000009649;"A";1;0;NA;"A";"black";"red";"parity";8;0;0;0;1;0
"2960";"5ec15cab0c15fc0358052c00";"BRAC2_vertLL_1st300";3;29;482,080000001704;"A";1;0;NA;"A";"black";"blue";"magnit";3;0;1;0;1;0
"2964";"5ec15cab0c15fc0358052c00";"BRAC2_vertLL_1st300";3;30;1128,31499999459;"L";1;0;NA;"L";"black";"blue";"magnit";9;0;0;1;0;0
"2968";"5ec15cab0c15fc0358052c00";"BRAC2_vertLL_1st300";3;31;475,219999992754;"L";1;0;NA;"L";"black";"blue";"magnit";6;0;0;0;0;0
"2972";"5ec15cab0c15fc0358052c00";"BRAC2_vertLL_1st300";3;32;223,595000003232;"L";1;1;NA;"A";"black";"blue";"magnit";2;0;0;1;0;0
"2976";"5ec15cab0c15fc0358052c00";"BRAC2_vertLL_1st300";3;33;865,669999998994;"A";1;0;NA;"A";"black";"blue";"magnit";4;0;0;0;0;1
"2980";"5ec15cab0c15fc0358052c00";"BRAC2_vertLL_1st300";3;34;918,239999999059;"L";1;0;NA;"L";"black";"red";"parity";1;0;1;1;1;0
"2984";"5ec15cab0c15fc0358052c00";"BRAC2_vertLL_1st300";3;35;1169,43500000355;"A";1;0;NA;"A";"black";"blue";"parity";2;0;0;1;1;0
"2988";"5ec15cab0c15fc0358052c00";"BRAC2_vertLL_1st300";3;36;800,770000001416;"A";1;0;NA;"A";"black";"red";"magnit";4;0;1;0;1;0
"2992";"5ec15cab0c15fc0358052c00";"BRAC2_vertLL_1st300";3;37;795,199999993201;"A";1;0;NA;"A";"black";"blue";"magnit";1;0;0;0;1;0
"2996";"5ec15cab0c15fc0358052c00";"BRAC2_vertLL_1st300";3;38;643,72500000149;"L";1;0;NA;"L";"black";"red";"magnit";9;0;0;1;1;0
"3000";"5ec15cab0c15fc0358052c00";"BRAC2_vertLL_1st300";3;39;490,615000002552;"A";1;0;NA;"A";"black";"blue";"magnit";4;0;0;1;1;0
"3004";"5ec15cab0c15fc0358052c00";"BRAC2_vertLL_1st300";3;40;678,759999995353;"L";1;0;NA;"L";"black";"red";"magnit";7;0;0;1;1;0
"3008";"5ec15cab0c15fc0358052c00";"BRAC2_vertLL_1st300";3;41;1172,98000000301;"L";1;0;NA;"L";"black";"red";"parity";9;0;1;0;0;0
"3012";"5ec15cab0c15fc0358052c00";"BRAC2_vertLL_1st300";3;42;950,994999991963;"A";1;0;NA;"A";"black";"blue";"parity";8;0;0;1;1;0
"3016";"5ec15cab0c15fc0358052c00";"BRAC2_vertLL_1st300";3;43;2499,89899999998;NA;NA;1;1;"A";"black";"red";"parity";2;0;0;0;1;0
"3020";"5ec15cab0c15fc0358052c00";"BRAC2_vertLL_1st300";3;44;740,434999999823;"A";1;0;NA;"A";"black";"red";"magnit";3;0;1;0;0;1
"3024";"5ec15cab0c15fc0358052c00";"BRAC2_vertLL_1st300";3;45;534,545000002254;"L";1;0;NA;"L";"black";"blue";"magnit";9;0;0;1;1;0
"3028";"5ec15cab0c15fc0358052c00";"BRAC2_vertLL_1st300";3;46;945,185000004247;"A";1;0;NA;"A";"black";"blue";"magnit";4;0;0;1;0;0
"3032";"5ec15cab0c15fc0358052c00";"BRAC2_vertLL_1st300";3;47;1034,6500000013;"L";1;0;NA;"L";"black";"blue";"parity";9;0;1;1;0;0
"3036";"5ec15cab0c15fc0358052c00";"BRAC2_vertLL_1st300";3;48;698,39499999932;"A";1;0;NA;"A";"black";"blue";"parity";2;0;0;1;0;0
"3040";"5ec15cab0c15fc0358052c00";"BRAC2_vertLL_1st300";3;49;837,994999994291;"L";1;0;NA;"L";"black";"red";"parity";7;0;0;1;1;0
"3044";"5ec15cab0c15fc0358052c00";"BRAC2_vertLL_1st300";3;50;460,965000005439;"L";1;0;NA;"L";"black";"red";"magnit";8;0;1;0;0;0
"3048";"5ec15cab0c15fc0358052c00";"BRAC2_vertLL_1st300";3;51;865,5049999943;"L";1;0;NA;"L";"black";"red";"magnit";6;0;0;0;0;0
"3052";"5ec15cab0c15fc0358052c00";"BRAC2_vertLL_1st300";3;52;1121,09999998938;"A";1;0;NA;"A";"black";"red";"parity";2;0;1;1;0;0
"3056";"5ec15cab0c15fc0358052c00";"BRAC2_vertLL_1st300";3;53;554,49500000407;"L";1;0;NA;"L";"black";"blue";"magnit";7;0;1;1;1;0
"3060";"5ec15cab0c15fc0358052c00";"BRAC2_vertLL_1st300";3;54;1302,58999999217;"A";1;0;NA;"A";"black";"red";"parity";6;0;1;1;1;0
"3064";"5ec15cab0c15fc0358052c00";"BRAC2_vertLL_1st300";3;55;1305,71000000043;"A";1;0;NA;"A";"black";"blue";"parity";8;0;0;0;1;0
"3068";"5ec15cab0c15fc0358052c00";"BRAC2_vertLL_1st300";3;56;582,439999998314;"A";1;0;NA;"A";"black";"blue";"magnit";1;0;1;0;0;0
"3072";"5ec15cab0c15fc0358052c00";"BRAC2_vertLL_1st300";3;57;887,765000006882;"A";1;0;NA;"A";"black";"red";"parity";8;0;1;0;1;0
"3076";"5ec15cab0c15fc0358052c00";"BRAC2_vertLL_1st300";3;58;788,310000003316;"A";1;1;NA;"L";"black";"red";"parity";1;0;0;1;0;0
"3080";"5ec15cab0c15fc0358052c00";"BRAC2_vertLL_1st300";3;59;492,075000002049;"A";1;0;NA;"A";"black";"red";"magnit";3;0;1;1;0;1
"3084";"5ec15cab0c15fc0358052c00";"BRAC2_vertLL_1st300";3;60;616,910000011558;"A";1;0;NA;"A";"black";"blue";"magnit";2;0;0;0;1;0
"3088";"5ec15cab0c15fc0358052c00";"BRAC2_vertLL_1st300";3;61;1001,26499999873;"A";1;0;NA;"A";"black";"blue";"parity";6;0;1;0;0;0
"3092";"5ec15cab0c15fc0358052c00";"BRAC2_vertLL_1st300";3;62;808,199999999488;"A";1;0;NA;"A";"black";"blue";"parity";4;0;0;0;0;0
"3096";"5ec15cab0c15fc0358052c00";"BRAC2_vertLL_1st300";3;63;423,945000002393;"A";1;0;NA;"A";"black";"blue";"magnit";3;0;1;0;0;0
"3100";"5ec15cab0c15fc0358052c00";"BRAC2_vertLL_1st300";3;64;831,220000007423;"A";1;0;NA;"A";"black";"blue";"parity";8;0;1;0;0;0
"3104";"5ec15cab0c15fc0358052c00";"BRAC2_vertLL_1st300";3;65;494,055000002962;"A";1;0;NA;"A";"black";"red";"magnit";1;0;1;0;1;0
"3108";"5ec15cab0c15fc0358052c00";"BRAC2_vertLL_1st300";3;66;628,44000000041;"L";1;0;NA;"L";"black";"blue";"parity";3;0;1;1;1;0
"3112";"5ec15cab0c15fc0358052c00";"BRAC2_vertLL_1st300";3;67;627,565000002505;"L";1;0;NA;"L";"black";"blue";"magnit";7;0;1;0;0;0
"3116";"5ec15cab0c15fc0358052c00";"BRAC2_vertLL_1st300";3;68;570,415000009118;"A";1;0;NA;"A";"black";"blue";"parity";6;0;1;1;0;0
"3120";"5ec15cab0c15fc0358052c00";"BRAC2_vertLL_1st300";3;69;557,010000003967;"L";1;0;NA;"L";"black";"red";"parity";9;0;0;1;1;0
"3124";"5ec15cab0c15fc0358052c00";"BRAC2_vertLL_1st300";3;70;572,744999997551;"A";1;0;NA;"A";"black";"blue";"magnit";1;0;1;1;1;0
"3128";"5ec15cab0c15fc0358052c00";"BRAC2_vertLL_1st300";3;71;631,429999994114;"L";1;0;NA;"L";"black";"red";"magnit";7;0;0;1;1;0
"3132";"5ec15cab0c15fc0358052c00";"BRAC2_vertLL_1st300";3;72;486,560000004712;"A";1;0;NA;"A";"black";"red";"magnit";2;0;0;1;0;0
"3136";"5ec15cab0c15fc0358052c00";"BRAC2_vertLL_1st300";3;73;1251,00500001269;"L";1;0;NA;"L";"black";"blue";"parity";1;0;1;1;1;0
"3140";"5ec15cab0c15fc0358052c00";"BRAC2_vertLL_1st300";3;74;488,700000001816;"L";1;0;NA;"L";"black";"red";"parity";7;0;0;0;1;0
"3144";"5ec15cab0c15fc0358052c00";"BRAC2_vertLL_1st300";3;75;725,850000002654;"A";1;0;NA;"A";"black";"red";"magnit";3;0;1;1;0;0
"3148";"5ec15cab0c15fc0358052c00";"BRAC2_vertLL_1st300";3;76;649,799999999348;"L";1;0;NA;"L";"black";"blue";"parity";1;0;1;1;1;0
"3152";"5ec15cab0c15fc0358052c00";"BRAC2_vertLL_1st300";3;77;487,095000004163;"A";1;0;NA;"A";"black";"red";"magnit";2;0;1;1;1;0
"3156";"5ec15cab0c15fc0358052c00";"BRAC2_vertLL_1st300";3;78;1732,52499999944;"L";1;0;NA;"L";"black";"blue";"parity";9;0;1;1;1;0
"3160";"5ec15cab0c15fc0358052c00";"BRAC2_vertLL_1st300";3;79;1253,87499999488;"L";1;0;NA;"L";"black";"red";"magnit";6;0;1;0;1;0
"3164";"5ec15cab0c15fc0358052c00";"BRAC2_vertLL_1st300";3;80;1733,745000005;"L";1;0;NA;"L";"black";"red";"magnit";9;0;0;0;0;0
"3168";"5ec15cab0c15fc0358052c00";"BRAC2_vertLL_1st300";3;81;1341,22000000207;"L";1;0;NA;"L";"black";"red";"parity";3;0;1;0;0;0
"3172";"5ec15cab0c15fc0358052c00";"BRAC2_vertLL_1st300";3;82;870,979999992298;"L";1;0;NA;"L";"black";"blue";"magnit";7;0;1;0;1;0
"3176";"5ec15cab0c15fc0358052c00";"BRAC2_vertLL_1st300";3;83;1251,34999999148;"A";1;0;NA;"A";"black";"blue";"parity";2;0;1;1;0;0
"3180";"5ec15cab0c15fc0358052c00";"BRAC2_vertLL_1st300";3;84;1341,49500000058;"L";1;0;NA;"L";"black";"blue";"parity";7;0;0;1;0;0
"3184";"5ec15cab0c15fc0358052c00";"BRAC2_vertLL_1st300";3;85;1314,45999999437;"A";1;0;NA;"A";"black";"red";"parity";6;0;0;1;1;0
"3188";"5ec15cab0c15fc0358052c00";"BRAC2_vertLL_1st300";3;86;1468,63499999745;"A";1;0;NA;"A";"black";"red";"magnit";2;0;1;0;0;0
"3192";"5ec15cab0c15fc0358052c00";"BRAC2_vertLL_1st300";3;87;1757,24999999488;"A";1;0;NA;"A";"black";"red";"parity";8;0;1;0;0;0
"3196";"5ec15cab0c15fc0358052c00";"BRAC2_vertLL_1st300";3;88;1041,67999999505;"L";1;0;NA;"L";"black";"blue";"magnit";9;0;1;1;1;0
"3200";"5ec15cab0c15fc0358052c00";"BRAC2_vertLL_1st300";3;89;1292,86000000127;"A";1;0;NA;"A";"black";"red";"parity";4;0;1;1;1;0
"3204";"5ec15cab0c15fc0358052c00";"BRAC2_vertLL_1st300";3;90;620,985000001267;"A";1;0;NA;"A";"black";"blue";"magnit";3;0;1;0;1;0
"3208";"5ec15cab0c15fc0358052c00";"BRAC2_vertLL_1st300";3;91;1077,14999999758;"A";1;0;NA;"A";"black";"blue";"magnit";2;0;0;0;0;0
"3212";"5ec15cab0c15fc0358052c00";"BRAC2_vertLL_1st300";3;92;2040,88000000059;"L";1;0;NA;"L";"black";"red";"parity";1;0;1;1;1;0
"3216";"5ec15cab0c15fc0358052c00";"BRAC2_vertLL_1st300";3;93;2211,87499999348;"A";1;1;NA;"L";"black";"red";"parity";9;0;0;0;0;0
"3220";"5ec15cab0c15fc0358052c00";"BRAC2_vertLL_1st300";3;94;1387,85500000813;"A";1;0;NA;"A";"black";"blue";"parity";6;0;0;1;1;1
"3224";"5ec15cab0c15fc0358052c00";"BRAC2_vertLL_1st300";3;95;1880,89499999466;"L";1;0;NA;"L";"black";"blue";"parity";1;0;0;1;0;0
"3302";"5bdc5f362562330001b8e622";"BRAC2_horiAA_1st0";0;0;653,844999993453;"A";1;0;NA;"A";"black";"blue";"magnit";7;0;99;99;99;99
"3306";"5bdc5f362562330001b8e622";"BRAC2_horiAA_1st0";0;1;499,905000004219;"L";1;0;NA;"L";"black";"blue";"magnit";2;0;0;1;0;0
"3310";"5bdc5f362562330001b8e622";"BRAC2_horiAA_1st0";0;2;623,514999984764;"A";1;0;NA;"A";"black";"red";"parity";9;0;1;1;1;0
"3314";"5bdc5f362562330001b8e622";"BRAC2_horiAA_1st0";0;3;1206,65000000736;"L";1;0;NA;"L";"black";"blue";"magnit";3;0;1;1;1;0
"3318";"5bdc5f362562330001b8e622";"BRAC2_horiAA_1st0";0;4;542,175000009593;"A";1;0;NA;"A";"black";"blue";"magnit";9;0;0;1;0;0
"3322";"5bdc5f362562330001b8e622";"BRAC2_horiAA_1st0";0;5;1193,23500001337;"A";1;0;NA;"A";"black";"red";"parity";3;0;1;0;1;0
"3326";"5bdc5f362562330001b8e622";"BRAC2_horiAA_1st0";0;6;1402,36500001629;"A";1;0;NA;"A";"black";"blue";"magnit";6;0;1;0;1;0
"3330";"5bdc5f362562330001b8e622";"BRAC2_horiAA_1st0";0;7;833,695000008447;"L";1;1;NA;"A";"black";"red";"parity";1;0;1;0;1;0
"3334";"5bdc5f362562330001b8e622";"BRAC2_horiAA_1st0";0;8;1321,23000000138;"A";1;0;NA;"A";"black";"blue";"magnit";8;0;1;0;1;1
"3338";"5bdc5f362562330001b8e622";"BRAC2_horiAA_1st0";0;9;851,969999988796;"L";1;0;NA;"L";"black";"red";"magnit";1;0;0;1;1;0
"3342";"5bdc5f362562330001b8e622";"BRAC2_horiAA_1st0";0;10;1049,8399999924;"A";1;1;NA;"L";"black";"blue";"parity";4;0;1;0;1;0
