"pp";"counterbalance";"blockNum";"trialNum";"rt";"Response";"Attempt";"error";"Timed.Out";"ANSWER";"cuecolor";"framecolor";"task";"stimulus";"cocoa";"Participant.OS";"Participant.Browser";"ppViewportSize";"task_R";"ANSWER_R";"framecolor_R";"error_R";"age";"sex";"psyKnowledge";"education";"handedness";"motherTongue";"country"
"PJ6";"BRAC2_vertAA_1st300";0;0;1062,90499999886;"L";1;0;NA;"L";"black";"red";"parity";6;300;"MacOs";"Chrome";"1440x697";99;99;99;99;"27";"female";"I've studied at least one of these disciplines (school or university)";"Bachelor degree";"right-handed";"";"Germany"
"PJ6";"BRAC2_vertAA_1st300";0;1;561,079999999492;"L";1;0;NA;"L";"black";"blue";"parity";2;300;"MacOs";"Chrome";"1440x697";0;0;1;0;"27";"female";"I've studied at least one of these disciplines (school or university)";"Bachelor degree";"right-handed";"";"Germany"
"PJ6";"BRAC2_vertAA_1st300";0;2;586,579999995534;"A";1;0;NA;"A";"black";"blue";"magnit";9;300;"MacOs";"Chrome";"1440x697";1;1;0;0;"27";"female";"I've studied at least one of these disciplines (school or university)";"Bachelor degree";"right-handed";"";"Germany"
"PJ6";"BRAC2_vertAA_1st300";0;3;671,519999996293;"A";1;0;NA;"A";"black";"blue";"parity";3;300;"MacOs";"Chrome";"1440x697";1;0;0;0;"27";"female";"I've studied at least one of these disciplines (school or university)";"Bachelor degree";"right-handed";"";"Germany"
"PJ6";"BRAC2_vertAA_1st300";0;4;646,424999998999;"L";1;0;NA;"L";"black";"blue";"parity";6;300;"MacOs";"Chrome";"1440x697";0;1;0;0;"27";"female";"I've studied at least one of these disciplines (school or university)";"Bachelor degree";"right-handed";"";"Germany"
"PJ6";"BRAC2_vertAA_1st300";0;5;596,4949999979;"L";1;0;NA;"L";"black";"blue";"magnit";2;300;"MacOs";"Chrome";"1440x697";1;0;0;0;"27";"female";"I've studied at least one of these disciplines (school or university)";"Bachelor degree";"right-handed";"";"Germany"
"PJ6";"BRAC2_vertAA_1st300";0;6;654,894999999786;"A";1;0;NA;"A";"black";"red";"parity";1;300;"MacOs";"Chrome";"1440x697";1;1;1;0;"27";"female";"I've studied at least one of these disciplines (school or university)";"Bachelor degree";"right-handed";"";"Germany"
"PJ6";"BRAC2_vertAA_1st300";0;7;628,25499999593;"L";1;0;NA;"L";"black";"blue";"magnit";3;300;"MacOs";"Chrome";"1440x697";1;1;1;0;"27";"female";"I've studied at least one of these disciplines (school or university)";"Bachelor degree";"right-handed";"";"Germany"
"PJ6";"BRAC2_vertAA_1st300";0;8;565,589999998221;"A";1;0;NA;"A";"black";"red";"magnit";6;300;"MacOs";"Chrome";"1440x697";0;1;1;0;"27";"female";"I've studied at least one of these disciplines (school or university)";"Bachelor degree";"right-handed";"";"Germany"
"PJ6";"BRAC2_vertAA_1st300";0;9;470,645000001299;"L";1;0;NA;"L";"black";"blue";"magnit";2;300;"MacOs";"Chrome";"1440x697";0;1;1;0;"27";"female";"I've studied at least one of these disciplines (school or university)";"Bachelor degree";"right-handed";"";"Germany"
"PJ6";"BRAC2_vertAA_1st300";0;10;750,469999999041;"L";1;1;NA;"A";"black";"red";"parity";3;300;"MacOs";"Chrome";"1440x697";1;1;1;0;"27";"female";"I've studied at least one of these disciplines (school or university)";"Bachelor degree";"right-handed";"";"Germany"
"PJ6";"BRAC2_vertAA_1st300";0;11;635,715000004042;"A";1;0;NA;"A";"black";"red";"magnit";9;300;"MacOs";"Chrome";"1440x697";1;0;0;1;"27";"female";"I've studied at least one of these disciplines (school or university)";"Bachelor degree";"right-handed";"";"Germany"
"PJ6";"BRAC2_vertAA_1st300";0;12;554,810000001453;"L";1;0;NA;"L";"black";"blue";"parity";4;300;"MacOs";"Chrome";"1440x697";1;1;1;0;"27";"female";"I've studied at least one of these disciplines (school or university)";"Bachelor degree";"right-handed";"";"Germany"
"PJ6";"BRAC2_vertAA_1st300";0;13;465,094999999623;"A";1;0;NA;"A";"black";"red";"magnit";7;300;"MacOs";"Chrome";"1440x697";1;1;1;0;"27";"female";"I've studied at least one of these disciplines (school or university)";"Bachelor degree";"right-handed";"";"Germany"
"PJ6";"BRAC2_vertAA_1st300";0;14;643,329999999027;"L";1;0;NA;"L";"black";"blue";"magnit";2;300;"MacOs";"Chrome";"1440x697";0;1;1;0;"27";"female";"I've studied at least one of these disciplines (school or university)";"Bachelor degree";"right-handed";"";"Germany"
"PJ6";"BRAC2_vertAA_1st300";0;15;647,124999995809;"L";1;0;NA;"L";"black";"red";"parity";8;300;"MacOs";"Chrome";"1440x697";1;0;1;0;"27";"female";"I've studied at least one of these disciplines (school or university)";"Bachelor degree";"right-handed";"";"Germany"
"PJ6";"BRAC2_vertAA_1st300";0;16;615,83999999857;"A";1;0;NA;"A";"black";"red";"magnit";7;300;"MacOs";"Chrome";"1440x697";1;1;0;0;"27";"female";"I've studied at least one of these disciplines (school or university)";"Bachelor degree";"right-handed";"";"Germany"
"PJ6";"BRAC2_vertAA_1st300";0;17;397,839999997872;"L";1;0;NA;"L";"black";"red";"parity";4;300;"MacOs";"Chrome";"1440x697";1;1;0;0;"27";"female";"I've studied at least one of these disciplines (school or university)";"Bachelor degree";"right-handed";"";"Germany"
"PJ6";"BRAC2_vertAA_1st300";0;18;731,015000004787;"L";1;1;NA;"A";"black";"blue";"magnit";8;300;"MacOs";"Chrome";"1440x697";1;1;1;0;"27";"female";"I've studied at least one of these disciplines (school or university)";"Bachelor degree";"right-handed";"";"Germany"
"PJ6";"BRAC2_vertAA_1st300";0;19;766,545000005979;"A";1;0;NA;"A";"black";"red";"parity";9;300;"MacOs";"Chrome";"1440x697";1;0;1;1;"27";"female";"I've studied at least one of these disciplines (school or university)";"Bachelor degree";"right-handed";"";"Germany"
"PJ6";"BRAC2_vertAA_1st300";0;20;742,315000003087;"L";1;1;NA;"A";"black";"blue";"parity";3;300;"MacOs";"Chrome";"1440x697";0;0;1;0;"27";"female";"I've studied at least one of these disciplines (school or university)";"Bachelor degree";"right-handed";"";"Germany"
"PJ6";"BRAC2_vertAA_1st300";0;21;549,735000000568;"A";1;0;NA;"A";"black";"blue";"parity";9;300;"MacOs";"Chrome";"1440x697";0;0;0;1;"27";"female";"I've studied at least one of these disciplines (school or university)";"Bachelor degree";"right-handed";"";"Germany"
"PJ6";"BRAC2_vertAA_1st300";0;22;618,369999996386;"A";1;0;NA;"A";"black";"red";"parity";3;300;"MacOs";"Chrome";"1440x697";0;0;1;0;"27";"female";"I've studied at least one of these disciplines (school or university)";"Bachelor degree";"right-handed";"";"Germany"
"PJ6";"BRAC2_vertAA_1st300";0;23;447,919999998645;"A";1;0;NA;"A";"black";"blue";"parity";9;300;"MacOs";"Chrome";"1440x697";0;0;1;0;"27";"female";"I've studied at least one of these disciplines (school or university)";"Bachelor degree";"right-handed";"";"Germany"
"PJ6";"BRAC2_vertAA_1st300";0;24;560,410000005504;"L";1;0;NA;"L";"black";"blue";"parity";8;300;"MacOs";"Chrome";"1440x697";0;1;0;0;"27";"female";"I've studied at least one of these disciplines (school or university)";"Bachelor degree";"right-handed";"";"Germany"
"PJ6";"BRAC2_vertAA_1st300";0;25;535,234999995679;"A";1;0;NA;"A";"black";"blue";"parity";7;300;"MacOs";"Chrome";"1440x697";0;1;0;0;"27";"female";"I've studied at least one of these disciplines (school or university)";"Bachelor degree";"right-handed";"";"Germany"
"PJ6";"BRAC2_vertAA_1st300";0;26;538,605000001611;"L";1;0;NA;"L";"black";"red";"parity";8;300;"MacOs";"Chrome";"1440x697";0;1;1;0;"27";"female";"I've studied at least one of these disciplines (school or university)";"Bachelor degree";"right-handed";"";"Germany"
"PJ6";"BRAC2_vertAA_1st300";0;27;507,825000000536;"L";1;0;NA;"L";"black";"blue";"magnit";4;300;"MacOs";"Chrome";"1440x697";1;0;1;0;"27";"female";"I've studied at least one of these disciplines (school or university)";"Bachelor degree";"right-handed";"";"Germany"
"PJ6";"BRAC2_vertAA_1st300";0;28;590,470000002882;"A";1;0;NA;"A";"black";"red";"parity";1;300;"MacOs";"Chrome";"1440x697";1;1;1;0;"27";"female";"I've studied at least one of these disciplines (school or university)";"Bachelor degree";"right-handed";"";"Germany"
"PJ6";"BRAC2_vertAA_1st300";0;29;669,325000002515;"A";1;0;NA;"A";"black";"red";"parity";9;300;"MacOs";"Chrome";"1440x697";0;0;0;0;"27";"female";"I've studied at least one of these disciplines (school or university)";"Bachelor degree";"right-handed";"";"Germany"
"PJ6";"BRAC2_vertAA_1st300";0;30;1050,87500000081;"A";1;0;NA;"A";"black";"blue";"parity";7;300;"MacOs";"Chrome";"1440x697";0;0;1;0;"27";"female";"I've studied at least one of these disciplines (school or university)";"Bachelor degree";"right-handed";"";"Germany"
"PJ6";"BRAC2_vertAA_1st300";0;31;1320,495;"A";1;0;NA;"A";"black";"blue";"magnit";6;300;"MacOs";"Chrome";"1440x697";1;0;0;0;"27";"female";"I've studied at least one of these disciplines (school or university)";"Bachelor degree";"right-handed";"";"Germany"
"PJ6";"BRAC2_vertAA_1st300";0;32;1780,03500000341;"A";1;0;NA;"A";"black";"blue";"magnit";8;300;"MacOs";"Chrome";"1440x697";0;0;0;0;"27";"female";"I've studied at least one of these disciplines (school or university)";"Bachelor degree";"right-handed";"";"Germany"
"PJ6";"BRAC2_vertAA_1st300";0;33;854,489999997895;"L";1;0;NA;"L";"black";"red";"parity";4;300;"MacOs";"Chrome";"1440x697";1;1;1;0;"27";"female";"I've studied at least one of these disciplines (school or university)";"Bachelor degree";"right-handed";"";"Germany"
"PJ6";"BRAC2_vertAA_1st300";0;34;1006,27499999979;"A";1;0;NA;"A";"black";"red";"magnit";7;300;"MacOs";"Chrome";"1440x697";1;1;0;0;"27";"female";"I've studied at least one of these disciplines (school or university)";"Bachelor degree";"right-handed";"";"Germany"
"PJ6";"BRAC2_vertAA_1st300";0;35;1762,39499999792;"A";1;0;NA;"A";"black";"red";"magnit";6;300;"MacOs";"Chrome";"1440x697";0;0;0;0;"27";"female";"I've studied at least one of these disciplines (school or university)";"Bachelor degree";"right-handed";"";"Germany"
"PJ6";"BRAC2_vertAA_1st300";0;36;1508,01499999943;"A";1;0;NA;"A";"black";"red";"magnit";8;300;"MacOs";"Chrome";"1440x697";0;0;0;0;"27";"female";"I've studied at least one of these disciplines (school or university)";"Bachelor degree";"right-handed";"";"Germany"
"PJ6";"BRAC2_vertAA_1st300";0;37;1068,24999999662;"A";1;0;NA;"A";"black";"blue";"magnit";9;300;"MacOs";"Chrome";"1440x697";0;0;1;0;"27";"female";"I've studied at least one of these disciplines (school or university)";"Bachelor degree";"right-handed";"";"Germany"
"PJ6";"BRAC2_vertAA_1st300";0;38;802,27500000177;"L";1;0;NA;"L";"black";"red";"magnit";1;300;"MacOs";"Chrome";"1440x697";0;1;1;0;"27";"female";"I've studied at least one of these disciplines (school or university)";"Bachelor degree";"right-handed";"";"Germany"
"PJ6";"BRAC2_vertAA_1st300";0;39;483,585000001825;"A";1;0;NA;"A";"black";"red";"magnit";9;300;"MacOs";"Chrome";"1440x697";0;1;0;0;"27";"female";"I've studied at least one of these disciplines (school or university)";"Bachelor degree";"right-handed";"";"Germany"
"PJ6";"BRAC2_vertAA_1st300";0;40;885,464999999385;"A";1;0;NA;"A";"black";"blue";"parity";7;300;"MacOs";"Chrome";"1440x697";1;0;1;0;"27";"female";"I've studied at least one of these disciplines (school or university)";"Bachelor degree";"right-handed";"";"Germany"
"PJ6";"BRAC2_vertAA_1st300";0;41;672,595000003581;"L";1;0;NA;"L";"black";"blue";"parity";4;300;"MacOs";"Chrome";"1440x697";0;1;0;0;"27";"female";"I've studied at least one of these disciplines (school or university)";"Bachelor degree";"right-handed";"";"Germany"
"PJ6";"BRAC2_vertAA_1st300";0;42;707,954999997979;"A";1;0;NA;"A";"black";"blue";"magnit";7;300;"MacOs";"Chrome";"1440x697";1;1;0;0;"27";"female";"I've studied at least one of these disciplines (school or university)";"Bachelor degree";"right-handed";"";"Germany"
"PJ6";"BRAC2_vertAA_1st300";0;43;988,164999995264;"A";1;0;NA;"A";"black";"blue";"magnit";9;300;"MacOs";"Chrome";"1440x697";0;0;0;0;"27";"female";"I've studied at least one of these disciplines (school or university)";"Bachelor degree";"right-handed";"";"Germany"
"PJ6";"BRAC2_vertAA_1st300";0;44;597,3400000002;"L";1;0;NA;"L";"black";"blue";"magnit";3;300;"MacOs";"Chrome";"1440x697";0;1;0;0;"27";"female";"I've studied at least one of these disciplines (school or university)";"Bachelor degree";"right-handed";"";"Germany"
"PJ6";"BRAC2_vertAA_1st300";0;45;590,380000001518;"L";1;0;NA;"L";"black";"blue";"magnit";1;300;"MacOs";"Chrome";"1440x697";0;0;0;0;"27";"female";"I've studied at least one of these disciplines (school or university)";"Bachelor degree";"right-handed";"";"Germany"
"PJ6";"BRAC2_vertAA_1st300";0;46;548,685000001569;"A";1;1;NA;"L";"black";"blue";"parity";8;300;"MacOs";"Chrome";"1440x697";1;0;0;0;"27";"female";"I've studied at least one of these disciplines (school or university)";"Bachelor degree";"right-handed";"";"Germany"
"PJ6";"BRAC2_vertAA_1st300";0;47;1178,66499999934;"A";1;0;NA;"A";"black";"blue";"magnit";7;300;"MacOs";"Chrome";"1440x697";1;1;0;1;"27";"female";"I've studied at least one of these disciplines (school or university)";"Bachelor degree";"right-handed";"";"Germany"
"PJ6";"BRAC2_vertAA_1st300";0;48;572,040000006324;"L";1;0;NA;"L";"black";"blue";"parity";2;300;"MacOs";"Chrome";"1440x697";1;1;0;0;"27";"female";"I've studied at least one of these disciplines (school or university)";"Bachelor degree";"right-handed";"";"Germany"
"PJ6";"BRAC2_vertAA_1st300";0;49;1085,11500000162;"A";1;0;NA;"A";"black";"red";"magnit";8;300;"MacOs";"Chrome";"1440x697";1;1;1;0;"27";"female";"I've studied at least one of these disciplines (school or university)";"Bachelor degree";"right-handed";"";"Germany"
"PJ6";"BRAC2_vertAA_1st300";0;50;413,825000003213;"L";1;0;NA;"L";"black";"red";"parity";4;300;"MacOs";"Chrome";"1440x697";1;1;0;0;"27";"female";"I've studied at least one of these disciplines (school or university)";"Bachelor degree";"right-handed";"";"Germany"
"PJ6";"BRAC2_vertAA_1st300";0;51;442,369999997085;"L";1;0;NA;"L";"black";"red";"parity";8;300;"MacOs";"Chrome";"1440x697";0;0;0;0;"27";"female";"I've studied at least one of these disciplines (school or university)";"Bachelor degree";"right-handed";"";"Germany"
"PJ6";"BRAC2_vertAA_1st300";0;52;485,619999999413;"L";1;0;NA;"L";"black";"red";"parity";6;300;"MacOs";"Chrome";"1440x697";0;0;0;0;"27";"female";"I've studied at least one of these disciplines (school or university)";"Bachelor degree";"right-handed";"";"Germany"
"PJ6";"BRAC2_vertAA_1st300";0;53;582,670000003418;"A";1;0;NA;"A";"black";"blue";"parity";9;300;"MacOs";"Chrome";"1440x697";0;1;1;0;"27";"female";"I've studied at least one of these disciplines (school or university)";"Bachelor degree";"right-handed";"";"Germany"
"PJ6";"BRAC2_vertAA_1st300";0;54;641,944999995758;"L";1;0;NA;"L";"black";"blue";"parity";6;300;"MacOs";"Chrome";"1440x697";0;1;0;0;"27";"female";"I've studied at least one of these disciplines (school or university)";"Bachelor degree";"right-handed";"";"Germany"
"PJ6";"BRAC2_vertAA_1st300";0;55;543,960000002757;"L";1;1;NA;"A";"black";"blue";"parity";1;300;"MacOs";"Chrome";"1440x697";0;1;0;0;"27";"female";"I've studied at least one of these disciplines (school or university)";"Bachelor degree";"right-handed";"";"Germany"
"PJ6";"BRAC2_vertAA_1st300";0;56;744,635000002803;"L";1;0;NA;"L";"black";"blue";"parity";4;300;"MacOs";"Chrome";"1440x697";0;1;0;1;"27";"female";"I've studied at least one of these disciplines (school or university)";"Bachelor degree";"right-handed";"";"Germany"
"PJ6";"BRAC2_vertAA_1st300";0;57;870,545000005281;"L";1;0;NA;"L";"black";"red";"magnit";2;300;"MacOs";"Chrome";"1440x697";1;0;1;0;"27";"female";"I've studied at least one of these disciplines (school or university)";"Bachelor degree";"right-handed";"";"Germany"
"PJ6";"BRAC2_vertAA_1st300";0;58;1151,59999999742;"A";1;0;NA;"A";"black";"blue";"parity";3;300;"MacOs";"Chrome";"1440x697";1;1;1;0;"27";"female";"I've studied at least one of these disciplines (school or university)";"Bachelor degree";"right-handed";"";"Germany"
"PJ6";"BRAC2_vertAA_1st300";0;59;488,17499999865;"L";1;0;NA;"L";"black";"red";"parity";2;300;"MacOs";"Chrome";"1440x697";0;1;1;0;"27";"female";"I've studied at least one of these disciplines (school or university)";"Bachelor degree";"right-handed";"";"Germany"
"PJ6";"BRAC2_vertAA_1st300";0;60;562,22500000149;"L";1;0;NA;"L";"black";"blue";"magnit";4;300;"MacOs";"Chrome";"1440x697";1;0;1;0;"27";"female";"I've studied at least one of these disciplines (school or university)";"Bachelor degree";"right-handed";"";"Germany"
"PJ6";"BRAC2_vertAA_1st300";0;61;521,565000002738;"L";1;0;NA;"L";"black";"red";"magnit";1;300;"MacOs";"Chrome";"1440x697";0;0;1;0;"27";"female";"I've studied at least one of these disciplines (school or university)";"Bachelor degree";"right-handed";"";"Germany"
"PJ6";"BRAC2_vertAA_1st300";0;62;718,704999999376;"A";1;0;NA;"A";"black";"red";"parity";7;300;"MacOs";"Chrome";"1440x697";1;1;0;0;"27";"female";"I've studied at least one of these disciplines (school or university)";"Bachelor degree";"right-handed";"";"Germany"
"PJ6";"BRAC2_vertAA_1st300";0;63;647,430000004591;"A";1;0;NA;"A";"black";"red";"magnit";8;300;"MacOs";"Chrome";"1440x697";1;0;0;0;"27";"female";"I've studied at least one of these disciplines (school or university)";"Bachelor degree";"right-handed";"";"Germany"
"PJ6";"BRAC2_vertAA_1st300";0;64;550,974999998347;"L";1;0;NA;"L";"black";"blue";"magnit";1;300;"MacOs";"Chrome";"1440x697";0;1;1;0;"27";"female";"I've studied at least one of these disciplines (school or university)";"Bachelor degree";"right-handed";"";"Germany"
"PJ6";"BRAC2_vertAA_1st300";0;65;506,554999999935;"L";1;0;NA;"L";"black";"red";"parity";6;300;"MacOs";"Chrome";"1440x697";1;0;1;0;"27";"female";"I've studied at least one of these disciplines (school or university)";"Bachelor degree";"right-handed";"";"Germany"
"PJ6";"BRAC2_vertAA_1st300";0;66;452,599999996834;"L";1;0;NA;"L";"black";"red";"magnit";4;300;"MacOs";"Chrome";"1440x697";1;0;0;0;"27";"female";"I've studied at least one of these disciplines (school or university)";"Bachelor degree";"right-handed";"";"Germany"
"PJ6";"BRAC2_vertAA_1st300";0;67;482,865000005346;"L";1;1;NA;"A";"black";"blue";"magnit";6;300;"MacOs";"Chrome";"1440x697";0;1;1;0;"27";"female";"I've studied at least one of these disciplines (school or university)";"Bachelor degree";"right-handed";"";"Germany"
"PJ6";"BRAC2_vertAA_1st300";0;68;546,320000001229;"A";1;0;NA;"A";"black";"red";"parity";3;300;"MacOs";"Chrome";"1440x697";1;0;1;1;"27";"female";"I've studied at least one of these disciplines (school or university)";"Bachelor degree";"right-handed";"";"Germany"
"PJ6";"BRAC2_vertAA_1st300";0;69;499,945000003208;"L";1;1;NA;"A";"black";"blue";"parity";1;300;"MacOs";"Chrome";"1440x697";0;0;1;0;"27";"female";"I've studied at least one of these disciplines (school or university)";"Bachelor degree";"right-handed";"";"Germany"
"PJ6";"BRAC2_vertAA_1st300";0;70;753,470000003348;"L";1;0;NA;"L";"black";"red";"magnit";3;300;"MacOs";"Chrome";"1440x697";1;1;1;1;"27";"female";"I've studied at least one of these disciplines (school or university)";"Bachelor degree";"right-handed";"";"Germany"
"PJ6";"BRAC2_vertAA_1st300";0;71;500,615000004531;"A";1;0;NA;"A";"black";"red";"parity";7;300;"MacOs";"Chrome";"1440x697";1;1;0;0;"27";"female";"I've studied at least one of these disciplines (school or university)";"Bachelor degree";"right-handed";"";"Germany"
"PJ6";"BRAC2_vertAA_1st300";0;72;931,08499999647;"A";1;0;NA;"A";"black";"blue";"magnit";6;300;"MacOs";"Chrome";"1440x697";1;0;1;0;"27";"female";"I've studied at least one of these disciplines (school or university)";"Bachelor degree";"right-handed";"";"Germany"
"PJ6";"BRAC2_vertAA_1st300";0;73;560,034999995027;"L";1;0;NA;"L";"black";"red";"magnit";3;300;"MacOs";"Chrome";"1440x697";0;1;1;0;"27";"female";"I've studied at least one of these disciplines (school or university)";"Bachelor degree";"right-handed";"";"Germany"
"PJ6";"BRAC2_vertAA_1st300";0;74;632,369999999297;"L";1;0;NA;"L";"black";"red";"parity";2;300;"MacOs";"Chrome";"1440x697";1;0;0;0;"27";"female";"I've studied at least one of these disciplines (school or university)";"Bachelor degree";"right-handed";"";"Germany"
"PJ6";"BRAC2_vertAA_1st300";0;75;751,440000000061;"L";1;1;NA;"A";"black";"red";"parity";7;300;"MacOs";"Chrome";"1440x697";0;1;0;0;"27";"female";"I've studied at least one of these disciplines (school or university)";"Bachelor degree";"right-handed";"";"Germany"
"PJ6";"BRAC2_vertAA_1st300";0;76;728,069999997388;"A";1;0;NA;"A";"black";"red";"parity";9;300;"MacOs";"Chrome";"1440x697";0;0;0;1;"27";"female";"I've studied at least one of these disciplines (school or university)";"Bachelor degree";"right-handed";"";"Germany"
"PJ6";"BRAC2_vertAA_1st300";0;77;621,740000002319;"A";1;0;NA;"A";"black";"red";"magnit";6;300;"MacOs";"Chrome";"1440x697";1;0;0;0;"27";"female";"I've studied at least one of these disciplines (school or university)";"Bachelor degree";"right-handed";"";"Germany"
"PJ6";"BRAC2_vertAA_1st300";0;78;973,489999996731;"A";1;1;NA;"L";"black";"blue";"magnit";1;300;"MacOs";"Chrome";"1440x697";0;1;1;0;"27";"female";"I've studied at least one of these disciplines (school or university)";"Bachelor degree";"right-handed";"";"Germany"
"PJ6";"BRAC2_vertAA_1st300";0;79;960,464999996475;"L";1;0;NA;"L";"black";"blue";"parity";2;300;"MacOs";"Chrome";"1440x697";1;0;0;1;"27";"female";"I've studied at least one of these disciplines (school or university)";"Bachelor degree";"right-handed";"";"Germany"
"PJ6";"BRAC2_vertAA_1st300";0;80;633,045000002254;"L";1;0;NA;"L";"black";"blue";"parity";8;300;"MacOs";"Chrome";"1440x697";0;0;0;0;"27";"female";"I've studied at least one of these disciplines (school or university)";"Bachelor degree";"right-handed";"";"Germany"
"PJ6";"BRAC2_vertAA_1st300";0;81;466,710000000661;"A";1;1;NA;"L";"black";"red";"magnit";1;300;"MacOs";"Chrome";"1440x697";1;0;1;0;"27";"female";"I've studied at least one of these disciplines (school or university)";"Bachelor degree";"right-handed";"";"Germany"
"PJ6";"BRAC2_vertAA_1st300";0;82;480,015000001062;"L";1;0;NA;"L";"black";"red";"magnit";2;300;"MacOs";"Chrome";"1440x697";0;0;0;1;"27";"female";"I've studied at least one of these disciplines (school or university)";"Bachelor degree";"right-handed";"";"Germany"
"PJ6";"BRAC2_vertAA_1st300";0;83;634,319999997504;"L";1;1;NA;"A";"black";"red";"magnit";9;300;"MacOs";"Chrome";"1440x697";0;1;0;0;"27";"female";"I've studied at least one of these disciplines (school or university)";"Bachelor degree";"right-handed";"";"Germany"
"PJ6";"BRAC2_vertAA_1st300";0;84;485,325000001583;"L";1;0;NA;"L";"black";"red";"parity";2;300;"MacOs";"Chrome";"1440x697";1;1;0;1;"27";"female";"I've studied at least one of these disciplines (school or university)";"Bachelor degree";"right-handed";"";"Germany"
"PJ6";"BRAC2_vertAA_1st300";0;85;597,509999999544;"A";1;0;NA;"A";"black";"red";"parity";1;300;"MacOs";"Chrome";"1440x697";0;1;0;0;"27";"female";"I've studied at least one of these disciplines (school or university)";"Bachelor degree";"right-handed";"";"Germany"
"PJ6";"BRAC2_vertAA_1st300";0;86;846,72999999742;"A";1;0;NA;"A";"black";"blue";"magnit";7;300;"MacOs";"Chrome";"1440x697";1;0;1;0;"27";"female";"I've studied at least one of these disciplines (school or university)";"Bachelor degree";"right-handed";"";"Germany"
"PJ6";"BRAC2_vertAA_1st300";0;87;873,980000003939;"L";1;0;NA;"L";"black";"red";"magnit";3;300;"MacOs";"Chrome";"1440x697";0;1;1;0;"27";"female";"I've studied at least one of these disciplines (school or university)";"Bachelor degree";"right-handed";"";"Germany"
"PJ6";"BRAC2_vertAA_1st300";0;88;406,164999993052;"L";1;0;NA;"L";"black";"red";"magnit";4;300;"MacOs";"Chrome";"1440x697";0;0;0;0;"27";"female";"I've studied at least one of these disciplines (school or university)";"Bachelor degree";"right-handed";"";"Germany"
"PJ6";"BRAC2_vertAA_1st300";0;89;530,384999998263;"A";1;0;NA;"A";"black";"blue";"magnit";8;300;"MacOs";"Chrome";"1440x697";0;1;1;0;"27";"female";"I've studied at least one of these disciplines (school or university)";"Bachelor degree";"right-handed";"";"Germany"
"PJ6";"BRAC2_vertAA_1st300";0;90;661,054999996792;"A";1;0;NA;"A";"black";"blue";"parity";1;300;"MacOs";"Chrome";"1440x697";1;0;0;0;"27";"female";"I've studied at least one of these disciplines (school or university)";"Bachelor degree";"right-handed";"";"Germany"
"PJ6";"BRAC2_vertAA_1st300";0;91;440,030000005267;"L";1;0;NA;"L";"black";"red";"magnit";4;300;"MacOs";"Chrome";"1440x697";1;1;1;0;"27";"female";"I've studied at least one of these disciplines (school or university)";"Bachelor degree";"right-handed";"";"Germany"
"PJ6";"BRAC2_vertAA_1st300";0;92;710,790000004694;"A";1;1;NA;"L";"black";"blue";"parity";6;300;"MacOs";"Chrome";"1440x697";1;0;1;0;"27";"female";"I've studied at least one of these disciplines (school or university)";"Bachelor degree";"right-handed";"";"Germany"
"PJ6";"BRAC2_vertAA_1st300";0;93;501,785000000382;"L";1;0;NA;"L";"black";"blue";"magnit";4;300;"MacOs";"Chrome";"1440x697";1;0;0;1;"27";"female";"I've studied at least one of these disciplines (school or university)";"Bachelor degree";"right-handed";"";"Germany"
"PJ6";"BRAC2_vertAA_1st300";0;94;781,634999999427;"L";1;0;NA;"L";"black";"red";"magnit";2;300;"MacOs";"Chrome";"1440x697";0;0;1;0;"27";"female";"I've studied at least one of these disciplines (school or university)";"Bachelor degree";"right-handed";"";"Germany"
"PJ6";"BRAC2_vertAA_1st300";0;95;479,625;"L";1;0;NA;"L";"black";"blue";"magnit";3;300;"MacOs";"Chrome";"1440x697";0;0;1;0;"27";"female";"I've studied at least one of these disciplines (school or university)";"Bachelor degree";"right-handed";"";"Germany"
"PJ6";"BRAC2_vertAA_1st300";1;0;2048,70500000101;"L";1;1;NA;"A";"black";"blue";"parity";1;0;"MacOs";"Chrome";"1440x697";99;99;99;99;"27";"female";"I've studied at least one of these disciplines (school or university)";"Bachelor degree";"right-handed";"";"Germany"
"PJ6";"BRAC2_vertAA_1st300";1;1;1131,65499999747;"A";1;0;NA;"A";"black";"red";"magnit";6;0;"MacOs";"Chrome";"1440x697";1;0;1;1;"27";"female";"I've studied at least one of these disciplines (school or university)";"Bachelor degree";"right-handed";"";"Germany"
"PJ6";"BRAC2_vertAA_1st300";1;2;615,030000000959;"L";1;0;NA;"L";"black";"red";"parity";2;0;"MacOs";"Chrome";"1440x697";1;1;0;0;"27";"female";"I've studied at least one of these disciplines (school or university)";"Bachelor degree";"right-handed";"";"Germany"
"PJ6";"BRAC2_vertAA_1st300";1;3;444,95000000461;"A";1;1;NA;"L";"black";"blue";"parity";8;0;"MacOs";"Chrome";"1440x697";0;0;1;0;"27";"female";"I've studied at least one of these disciplines (school or university)";"Bachelor degree";"right-handed";"";"Germany"
"PJ6";"BRAC2_vertAA_1st300";1;4;532,825000002049;"L";1;0;NA;"L";"black";"blue";"magnit";2;0;"MacOs";"Chrome";"1440x697";1;0;0;1;"27";"female";"I've studied at least one of these disciplines (school or university)";"Bachelor degree";"right-handed";"";"Germany"
"PJ6";"BRAC2_vertAA_1st300";1;5;534,825000002515;"L";1;0;NA;"L";"black";"blue";"magnit";4;0;"MacOs";"Chrome";"1440x697";0;0;0;0;"27";"female";"I've studied at least one of these disciplines (school or university)";"Bachelor degree";"right-handed";"";"Germany"
"PJ6";"BRAC2_vertAA_1st300";1;6;791,479999999981;"L";1;0;NA;"L";"black";"red";"parity";6;0;"MacOs";"Chrome";"1440x697";1;0;1;0;"27";"female";"I've studied at least one of these disciplines (school or university)";"Bachelor degree";"right-handed";"";"Germany"
"PJ6";"BRAC2_vertAA_1st300";1;7;631,644999993965;"L";1;0;NA;"L";"black";"red";"magnit";3;0;"MacOs";"Chrome";"1440x697";1;0;0;0;"27";"female";"I've studied at least one of these disciplines (school or university)";"Bachelor degree";"right-handed";"";"Germany"
"PJ6";"BRAC2_vertAA_1st300";1;8;541,689999998314;"L";1;1;NA;"A";"black";"red";"parity";1;0;"MacOs";"Chrome";"1440x697";1;1;0;0;"27";"female";"I've studied at least one of these disciplines (school or university)";"Bachelor degree";"right-handed";"";"Germany"
"PJ6";"BRAC2_vertAA_1st300";1;9;479,81499999878;"L";1;0;NA;"L";"black";"blue";"magnit";2;0;"MacOs";"Chrome";"1440x697";1;1;1;1;"27";"female";"I've studied at least one of these disciplines (school or university)";"Bachelor degree";"right-handed";"";"Germany"
"PJ6";"BRAC2_vertAA_1st300";1;10;518,734999998007;"A";1;0;NA;"A";"black";"red";"magnit";7;0;"MacOs";"Chrome";"1440x697";0;1;1;0;"27";"female";"I've studied at least one of these disciplines (school or university)";"Bachelor degree";"right-handed";"";"Germany"
"PJ6";"BRAC2_vertAA_1st300";1;11;412,745000001509;"L";1;0;NA;"L";"black";"red";"magnit";3;0;"MacOs";"Chrome";"1440x697";0;1;0;0;"27";"female";"I've studied at least one of these disciplines (school or university)";"Bachelor degree";"right-handed";"";"Germany"
"PJ6";"BRAC2_vertAA_1st300";1;12;470,390000002459;"A";1;0;NA;"A";"black";"red";"magnit";7;0;"MacOs";"Chrome";"1440x697";0;1;0;0;"27";"female";"I've studied at least one of these disciplines (school or university)";"Bachelor degree";"right-handed";"";"Germany"
"PJ6";"BRAC2_vertAA_1st300";1;13;662,245000006631;"L";1;0;NA;"L";"black";"blue";"magnit";4;0;"MacOs";"Chrome";"1440x697";0;1;1;0;"27";"female";"I've studied at least one of these disciplines (school or university)";"Bachelor degree";"right-handed";"";"Germany"
"PJ6";"BRAC2_vertAA_1st300";1;14;540,940000006231;"A";1;0;NA;"A";"black";"red";"magnit";9;0;"MacOs";"Chrome";"1440x697";0;1;1;0;"27";"female";"I've studied at least one of these disciplines (school or university)";"Bachelor degree";"right-handed";"";"Germany"
"PJ6";"BRAC2_vertAA_1st300";1;15;782,370000000577;"L";1;0;NA;"L";"black";"blue";"parity";6;0;"MacOs";"Chrome";"1440x697";1;1;1;0;"27";"female";"I've studied at least one of these disciplines (school or university)";"Bachelor degree";"right-handed";"";"Germany"
"PJ6";"BRAC2_vertAA_1st300";1;16;596,254999996629;"L";1;0;NA;"L";"black";"red";"parity";8;0;"MacOs";"Chrome";"1440x697";0;0;1;0;"27";"female";"I've studied at least one of these disciplines (school or university)";"Bachelor degree";"right-handed";"";"Germany"
"PJ6";"BRAC2_vertAA_1st300";1;17;639,264999998035;"L";1;1;NA;"A";"black";"blue";"parity";1;0;"MacOs";"Chrome";"1440x697";0;1;1;0;"27";"female";"I've studied at least one of these disciplines (school or university)";"Bachelor degree";"right-handed";"";"Germany"
"PJ6";"BRAC2_vertAA_1st300";1;18;818,429999999236;"A";1;0;NA;"A";"black";"red";"parity";7;0;"MacOs";"Chrome";"1440x697";0;0;1;1;"27";"female";"I've studied at least one of these disciplines (school or university)";"Bachelor degree";"right-handed";"";"Germany"
"PJ6";"BRAC2_vertAA_1st300";1;19;728,085000002524;"A";1;0;NA;"A";"black";"red";"magnit";9;0;"MacOs";"Chrome";"1440x697";1;0;0;0;"27";"female";"I've studied at least one of these disciplines (school or university)";"Bachelor degree";"right-handed";"";"Germany"
"PJ6";"BRAC2_vertAA_1st300";1;20;724,945000001695;"L";1;0;NA;"L";"black";"red";"magnit";2;0;"MacOs";"Chrome";"1440x697";0;1;0;0;"27";"female";"I've studied at least one of these disciplines (school or university)";"Bachelor degree";"right-handed";"";"Germany"
"PJ6";"BRAC2_vertAA_1st300";1;21;491,979999998817;"A";1;0;NA;"A";"black";"blue";"magnit";9;0;"MacOs";"Chrome";"1440x697";0;1;1;0;"27";"female";"I've studied at least one of these disciplines (school or university)";"Bachelor degree";"right-handed";"";"Germany"
"PJ6";"BRAC2_vertAA_1st300";1;22;500,395000002813;"A";1;0;NA;"A";"black";"red";"parity";7;0;"MacOs";"Chrome";"1440x697";1;0;1;0;"27";"female";"I've studied at least one of these disciplines (school or university)";"Bachelor degree";"right-handed";"";"Germany"
"PJ6";"BRAC2_vertAA_1st300";1;23;661,879999999655;"A";1;0;NA;"A";"black";"red";"parity";1;0;"MacOs";"Chrome";"1440x697";0;0;0;0;"27";"female";"I've studied at least one of these disciplines (school or university)";"Bachelor degree";"right-handed";"";"Germany"
"PJ6";"BRAC2_vertAA_1st300";1;24;625,949999994133;"L";1;0;NA;"L";"black";"blue";"parity";2;0;"MacOs";"Chrome";"1440x697";0;1;1;0;"27";"female";"I've studied at least one of these disciplines (school or university)";"Bachelor degree";"right-handed";"";"Germany"
"PJ6";"BRAC2_vertAA_1st300";1;25;535,974999998696;"A";1;0;NA;"A";"black";"red";"parity";9;0;"MacOs";"Chrome";"1440x697";0;1;1;0;"27";"female";"I've studied at least one of these disciplines (school or university)";"Bachelor degree";"right-handed";"";"Germany"
"PJ6";"BRAC2_vertAA_1st300";1;26;825,640000002924;"A";1;0;NA;"A";"black";"red";"parity";3;0;"MacOs";"Chrome";"1440x697";0;0;0;0;"27";"female";"I've studied at least one of these disciplines (school or university)";"Bachelor degree";"right-handed";"";"Germany"
"PJ6";"BRAC2_vertAA_1st300";1;27;437,250000002794;"A";1;0;NA;"A";"black";"blue";"parity";1;0;"MacOs";"Chrome";"1440x697";0;0;1;0;"27";"female";"I've studied at least one of these disciplines (school or university)";"Bachelor degree";"right-handed";"";"Germany"
"PJ6";"BRAC2_vertAA_1st300";1;28;497,159999998985;"A";1;0;NA;"A";"black";"blue";"parity";3;0;"MacOs";"Chrome";"1440x697";0;0;0;0;"27";"female";"I've studied at least one of these disciplines (school or university)";"Bachelor degree";"right-handed";"";"Germany"
"PJ6";"BRAC2_vertAA_1st300";1;29;634,984999996843;"L";1;0;NA;"L";"black";"blue";"parity";4;0;"MacOs";"Chrome";"1440x697";0;1;0;0;"27";"female";"I've studied at least one of these disciplines (school or university)";"Bachelor degree";"right-handed";"";"Germany"
"PJ6";"BRAC2_vertAA_1st300";1;30;781,085000002291;"A";1;0;NA;"A";"black";"red";"parity";3;0;"MacOs";"Chrome";"1440x697";0;1;1;0;"27";"female";"I've studied at least one of these disciplines (school or university)";"Bachelor degree";"right-handed";"";"Germany"
"PJ6";"BRAC2_vertAA_1st300";1;31;514,490000001388;"L";1;0;NA;"L";"black";"blue";"magnit";2;0;"MacOs";"Chrome";"1440x697";1;1;1;0;"27";"female";"I've studied at least one of these disciplines (school or university)";"Bachelor degree";"right-handed";"";"Germany"
"PJ6";"BRAC2_vertAA_1st300";1;32;551,955000002636;"A";1;0;NA;"A";"black";"blue";"parity";3;0;"MacOs";"Chrome";"1440x697";1;1;0;0;"27";"female";"I've studied at least one of these disciplines (school or university)";"Bachelor degree";"right-handed";"";"Germany"
"PJ6";"BRAC2_vertAA_1st300";1;33;666,375000000698;"A";1;0;NA;"A";"black";"red";"magnit";8;0;"MacOs";"Chrome";"1440x697";1;0;1;0;"27";"female";"I've studied at least one of these disciplines (school or university)";"Bachelor degree";"right-handed";"";"Germany"
"PJ6";"BRAC2_vertAA_1st300";1;34;602,715000000782;"L";1;0;NA;"L";"black";"red";"magnit";1;0;"MacOs";"Chrome";"1440x697";0;1;0;0;"27";"female";"I've studied at least one of these disciplines (school or university)";"Bachelor degree";"right-handed";"";"Germany"
"PJ6";"BRAC2_vertAA_1st300";1;35;471,415000000037;"L";1;0;NA;"L";"black";"blue";"parity";2;0;"MacOs";"Chrome";"1440x697";1;0;1;0;"27";"female";"I've studied at least one of these disciplines (school or university)";"Bachelor degree";"right-handed";"";"Germany"
"PJ6";"BRAC2_vertAA_1st300";1;36;501,109999997308;"L";1;0;NA;"L";"black";"blue";"parity";4;0;"MacOs";"Chrome";"1440x697";0;0;0;0;"27";"female";"I've studied at least one of these disciplines (school or university)";"Bachelor degree";"right-handed";"";"Germany"
"PJ6";"BRAC2_vertAA_1st300";1;37;509,699999995064;"L";1;0;NA;"L";"black";"red";"magnit";2;0;"MacOs";"Chrome";"1440x697";1;0;1;0;"27";"female";"I've studied at least one of these disciplines (school or university)";"Bachelor degree";"right-handed";"";"Germany"
"PJ6";"BRAC2_vertAA_1st300";1;38;589,010000003502;"L";1;0;NA;"L";"black";"red";"parity";8;0;"MacOs";"Chrome";"1440x697";1;0;0;0;"27";"female";"I've studied at least one of these disciplines (school or university)";"Bachelor degree";"right-handed";"";"Germany"
"PJ6";"BRAC2_vertAA_1st300";1;39;386,575000004144;"L";1;0;NA;"L";"black";"blue";"parity";2;0;"MacOs";"Chrome";"1440x697";0;0;1;0;"27";"female";"I've studied at least one of these disciplines (school or university)";"Bachelor degree";"right-handed";"";"Germany"
"PJ6";"BRAC2_vertAA_1st300";1;40;567,329999997979;"A";1;0;NA;"A";"black";"blue";"parity";7;0;"MacOs";"Chrome";"1440x697";0;1;0;0;"27";"female";"I've studied at least one of these disciplines (school or university)";"Bachelor degree";"right-handed";"";"Germany"
"PJ6";"BRAC2_vertAA_1st300";1;41;504,545000003418;"A";1;0;NA;"A";"black";"blue";"parity";9;0;"MacOs";"Chrome";"1440x697";0;0;0;0;"27";"female";"I've studied at least one of these disciplines (school or university)";"Bachelor degree";"right-handed";"";"Germany"
"PJ6";"BRAC2_vertAA_1st300";1;42;596,890000000829;"A";1;0;NA;"A";"black";"blue";"magnit";6;0;"MacOs";"Chrome";"1440x697";1;0;0;0;"27";"female";"I've studied at least one of these disciplines (school or university)";"Bachelor degree";"right-handed";"";"Germany"
"PJ6";"BRAC2_vertAA_1st300";1;43;651,849999994505;"A";1;0;NA;"A";"black";"blue";"parity";3;0;"MacOs";"Chrome";"1440x697";1;0;0;0;"27";"female";"I've studied at least one of these disciplines (school or university)";"Bachelor degree";"right-handed";"";"Germany"
"PJ6";"BRAC2_vertAA_1st300";1;44;701,225000004284;"A";1;0;NA;"A";"black";"red";"magnit";6;0;"MacOs";"Chrome";"1440x697";1;0;1;0;"27";"female";"I've studied at least one of these disciplines (school or university)";"Bachelor degree";"right-handed";"";"Germany"
"PJ6";"BRAC2_vertAA_1st300";1;45;477,144999997225;"L";1;0;NA;"L";"black";"red";"magnit";4;0;"MacOs";"Chrome";"1440x697";0;1;0;0;"27";"female";"I've studied at least one of these disciplines (school or university)";"Bachelor degree";"right-handed";"";"Germany"
"PJ6";"BRAC2_vertAA_1st300";1;46;499,524999999208;"A";1;0;NA;"A";"black";"red";"magnit";7;0;"MacOs";"Chrome";"1440x697";0;1;0;0;"27";"female";"I've studied at least one of these disciplines (school or university)";"Bachelor degree";"right-handed";"";"Germany"
"PJ6";"BRAC2_vertAA_1st300";1;47;449,675000003539;"A";1;0;NA;"A";"black";"blue";"magnit";9;0;"MacOs";"Chrome";"1440x697";0;0;1;0;"27";"female";"I've studied at least one of these disciplines (school or university)";"Bachelor degree";"right-handed";"";"Germany"
"PJ6";"BRAC2_vertAA_1st300";1;48;735,02500000177;"A";1;1;NA;"L";"black";"blue";"parity";6;0;"MacOs";"Chrome";"1440x697";1;1;0;0;"27";"female";"I've studied at least one of these disciplines (school or university)";"Bachelor degree";"right-handed";"";"Germany"
"PJ6";"BRAC2_vertAA_1st300";1;49;442,384999994654;"A";1;0;NA;"A";"black";"blue";"magnit";7;0;"MacOs";"Chrome";"1440x697";1;1;0;1;"27";"female";"I've studied at least one of these disciplines (school or university)";"Bachelor degree";"right-handed";"";"Germany"
"PJ6";"BRAC2_vertAA_1st300";1;50;592,790000002366;"L";1;0;NA;"L";"black";"blue";"parity";4;0;"MacOs";"Chrome";"1440x697";1;1;0;0;"27";"female";"I've studied at least one of these disciplines (school or university)";"Bachelor degree";"right-handed";"";"Germany"
"PJ6";"BRAC2_vertAA_1st300";1;51;519,860000000335;"A";1;0;NA;"A";"black";"blue";"magnit";6;0;"MacOs";"Chrome";"1440x697";1;1;0;0;"27";"female";"I've studied at least one of these disciplines (school or university)";"Bachelor degree";"right-handed";"";"Germany"
"PJ6";"BRAC2_vertAA_1st300";1;52;587,099999997066;"A";1;0;NA;"A";"black";"red";"parity";9;0;"MacOs";"Chrome";"1440x697";1;0;1;0;"27";"female";"I've studied at least one of these disciplines (school or university)";"Bachelor degree";"right-handed";"";"Germany"
"PJ6";"BRAC2_vertAA_1st300";1;53;530,800000000512;"L";1;0;NA;"L";"black";"red";"magnit";3;0;"MacOs";"Chrome";"1440x697";1;1;0;0;"27";"female";"I've studied at least one of these disciplines (school or university)";"Bachelor degree";"right-handed";"";"Germany"
"PJ6";"BRAC2_vertAA_1st300";1;54;513,740000002319;"L";1;0;NA;"L";"black";"blue";"magnit";1;0;"MacOs";"Chrome";"1440x697";0;0;1;0;"27";"female";"I've studied at least one of these disciplines (school or university)";"Bachelor degree";"right-handed";"";"Germany"
"PJ6";"BRAC2_vertAA_1st300";1;55;418,489999996265;"A";1;0;NA;"A";"black";"blue";"parity";9;0;"MacOs";"Chrome";"1440x697";1;1;0;0;"27";"female";"I've studied at least one of these disciplines (school or university)";"Bachelor degree";"right-handed";"";"Germany"
"PJ6";"BRAC2_vertAA_1st300";1;56;481,345000000205;"A";1;0;NA;"A";"black";"red";"magnit";8;0;"MacOs";"Chrome";"1440x697";1;0;1;0;"27";"female";"I've studied at least one of these disciplines (school or university)";"Bachelor degree";"right-handed";"";"Germany"
"PJ6";"BRAC2_vertAA_1st300";1;57;1023,25500000012;"L";1;0;NA;"L";"black";"blue";"magnit";3;0;"MacOs";"Chrome";"1440x697";0;1;1;0;"27";"female";"I've studied at least one of these disciplines (school or university)";"Bachelor degree";"right-handed";"";"Germany"
"PJ6";"BRAC2_vertAA_1st300";1;58;611,105000003707;"A";1;1;NA;"L";"black";"red";"parity";8;0;"MacOs";"Chrome";"1440x697";1;0;1;0;"27";"female";"I've studied at least one of these disciplines (school or university)";"Bachelor degree";"right-handed";"";"Germany"
"PJ6";"BRAC2_vertAA_1st300";1;59;539,899999996182;"A";1;0;NA;"A";"black";"blue";"parity";7;0;"MacOs";"Chrome";"1440x697";0;1;1;1;"27";"female";"I've studied at least one of these disciplines (school or university)";"Bachelor degree";"right-handed";"";"Germany"
"PJ6";"BRAC2_vertAA_1st300";1;60;631,750000000466;"L";1;0;NA;"L";"black";"red";"magnit";1;0;"MacOs";"Chrome";"1440x697";1;1;1;0;"27";"female";"I've studied at least one of these disciplines (school or university)";"Bachelor degree";"right-handed";"";"Germany"
"PJ6";"BRAC2_vertAA_1st300";1;61;900,289999997709;"A";1;0;NA;"A";"black";"blue";"parity";7;0;"MacOs";"Chrome";"1440x697";1;1;1;0;"27";"female";"I've studied at least one of these disciplines (school or university)";"Bachelor degree";"right-handed";"";"Germany"
"PJ6";"BRAC2_vertAA_1st300";1;62;928,419999996433;"A";1;0;NA;"A";"black";"blue";"magnit";8;0;"MacOs";"Chrome";"1440x697";1;0;0;0;"27";"female";"I've studied at least one of these disciplines (school or university)";"Bachelor degree";"right-handed";"";"Germany"
"PJ6";"BRAC2_vertAA_1st300";1;63;607,77499999688;"L";1;0;NA;"L";"black";"red";"parity";6;0;"MacOs";"Chrome";"1440x697";1;1;1;0;"27";"female";"I've studied at least one of these disciplines (school or university)";"Bachelor degree";"right-handed";"";"Germany"
"PJ6";"BRAC2_vertAA_1st300";1;64;611,06000000285;"L";1;0;NA;"L";"black";"blue";"parity";8;0;"MacOs";"Chrome";"1440x697";0;0;1;0;"27";"female";"I've studied at least one of these disciplines (school or university)";"Bachelor degree";"right-handed";"";"Germany"
"PJ6";"BRAC2_vertAA_1st300";1;65;622,800000004703;"A";1;0;NA;"A";"black";"blue";"magnit";7;0;"MacOs";"Chrome";"1440x697";1;1;0;0;"27";"female";"I've studied at least one of these disciplines (school or university)";"Bachelor degree";"right-handed";"";"Germany"
"PJ6";"BRAC2_vertAA_1st300";1;66;598,219999999972;"A";1;0;NA;"A";"black";"red";"parity";3;0;"MacOs";"Chrome";"1440x697";1;0;1;0;"27";"female";"I've studied at least one of these disciplines (school or university)";"Bachelor degree";"right-handed";"";"Germany"
"PJ6";"BRAC2_vertAA_1st300";1;67;696,004999998026;"A";1;1;NA;"L";"black";"blue";"magnit";1;0;"MacOs";"Chrome";"1440x697";1;1;1;0;"27";"female";"I've studied at least one of these disciplines (school or university)";"Bachelor degree";"right-handed";"";"Germany"
"PJ6";"BRAC2_vertAA_1st300";1;68;610,56499999552;"A";1;0;NA;"A";"black";"red";"parity";7;0;"MacOs";"Chrome";"1440x697";1;1;1;1;"27";"female";"I've studied at least one of these disciplines (school or university)";"Bachelor degree";"right-handed";"";"Germany"
"PJ6";"BRAC2_vertAA_1st300";1;69;766,285000005038;"A";1;1;NA;"L";"black";"blue";"magnit";1;0;"MacOs";"Chrome";"1440x697";1;1;1;0;"27";"female";"I've studied at least one of these disciplines (school or university)";"Bachelor degree";"right-handed";"";"Germany"
"PJ6";"BRAC2_vertAA_1st300";1;70;498,774999999907;"A";1;0;NA;"A";"black";"blue";"magnit";8;0;"MacOs";"Chrome";"1440x697";0;1;0;1;"27";"female";"I've studied at least one of these disciplines (school or university)";"Bachelor degree";"right-handed";"";"Germany"
"PJ6";"BRAC2_vertAA_1st300";1;71;447,944999999832;"L";1;0;NA;"L";"black";"blue";"magnit";4;0;"MacOs";"Chrome";"1440x697";0;1;0;0;"27";"female";"I've studied at least one of these disciplines (school or university)";"Bachelor degree";"right-handed";"";"Germany"
"PJ6";"BRAC2_vertAA_1st300";1;72;521,625000001164;"A";1;0;NA;"A";"black";"red";"magnit";9;0;"MacOs";"Chrome";"1440x697";0;1;1;0;"27";"female";"I've studied at least one of these disciplines (school or university)";"Bachelor degree";"right-handed";"";"Germany"
"PJ6";"BRAC2_vertAA_1st300";1;73;451,025000002235;"L";1;0;NA;"L";"black";"red";"parity";4;0;"MacOs";"Chrome";"1440x697";1;1;0;0;"27";"female";"I've studied at least one of these disciplines (school or university)";"Bachelor degree";"right-handed";"";"Germany"
"PJ6";"BRAC2_vertAA_1st300";1;74;456,4950000057;"L";1;0;NA;"L";"black";"blue";"parity";6;0;"MacOs";"Chrome";"1440x697";0;0;1;0;"27";"female";"I've studied at least one of these disciplines (school or university)";"Bachelor degree";"right-handed";"";"Germany"
"PJ6";"BRAC2_vertAA_1st300";1;75;387,870000005933;"L";1;0;NA;"L";"black";"red";"parity";2;0;"MacOs";"Chrome";"1440x697";0;0;1;0;"27";"female";"I've studied at least one of these disciplines (school or university)";"Bachelor degree";"right-handed";"";"Germany"
"PJ6";"BRAC2_vertAA_1st300";1;76;1256,68999999459;"L";1;0;NA;"L";"black";"blue";"magnit";3;0;"MacOs";"Chrome";"1440x697";1;0;1;0;"27";"female";"I've studied at least one of these disciplines (school or university)";"Bachelor degree";"right-handed";"";"Germany"
"PJ6";"BRAC2_vertAA_1st300";1;77;959,269999999553;"A";1;1;NA;"L";"black";"red";"parity";4;0;"MacOs";"Chrome";"1440x697";1;0;1;0;"27";"female";"I've studied at least one of these disciplines (school or university)";"Bachelor degree";"right-handed";"";"Germany"
"PJ6";"BRAC2_vertAA_1st300";1;78;658,419999999925;"L";1;1;NA;"A";"black";"red";"magnit";8;0;"MacOs";"Chrome";"1440x697";1;1;0;1;"27";"female";"I've studied at least one of these disciplines (school or university)";"Bachelor degree";"right-handed";"";"Germany"
"PJ6";"BRAC2_vertAA_1st300";1;79;527,269999998622;"L";1;0;NA;"L";"black";"red";"magnit";4;0;"MacOs";"Chrome";"1440x697";0;1;0;1;"27";"female";"I've studied at least one of these disciplines (school or university)";"Bachelor degree";"right-handed";"";"Germany"
"PJ6";"BRAC2_vertAA_1st300";1;80;897,210000002757;"A";1;0;NA;"A";"black";"blue";"magnit";9;0;"MacOs";"Chrome";"1440x697";0;1;1;0;"27";"female";"I've studied at least one of these disciplines (school or university)";"Bachelor degree";"right-handed";"";"Germany"
"PJ6";"BRAC2_vertAA_1st300";1;81;627,545000002952;"L";1;1;NA;"A";"black";"red";"parity";1;0;"MacOs";"Chrome";"1440x697";1;0;1;0;"27";"female";"I've studied at least one of these disciplines (school or university)";"Bachelor degree";"right-handed";"";"Germany"
"PJ6";"BRAC2_vertAA_1st300";1;82;668,780000000028;"L";1;0;NA;"L";"black";"red";"magnit";4;0;"MacOs";"Chrome";"1440x697";1;1;0;1;"27";"female";"I've studied at least one of these disciplines (school or university)";"Bachelor degree";"right-handed";"";"Germany"
"PJ6";"BRAC2_vertAA_1st300";1;83;585,125000004889;"A";1;0;NA;"A";"black";"red";"magnit";6;0;"MacOs";"Chrome";"1440x697";0;1;0;0;"27";"female";"I've studied at least one of these disciplines (school or university)";"Bachelor degree";"right-handed";"";"Germany"
"PJ6";"BRAC2_vertAA_1st300";1;84;611,394999999786;"A";1;0;NA;"A";"black";"blue";"magnit";8;0;"MacOs";"Chrome";"1440x697";0;0;1;0;"27";"female";"I've studied at least one of these disciplines (school or university)";"Bachelor degree";"right-handed";"";"Germany"
"PJ6";"BRAC2_vertAA_1st300";1;85;405,005000000587;"L";1;0;NA;"L";"black";"red";"parity";2;0;"MacOs";"Chrome";"1440x697";1;1;1;0;"27";"female";"I've studied at least one of these disciplines (school or university)";"Bachelor degree";"right-handed";"";"Germany"
"PJ6";"BRAC2_vertAA_1st300";1;86;690,750000001397;"L";1;0;NA;"L";"black";"red";"parity";4;0;"MacOs";"Chrome";"1440x697";0;0;0;0;"27";"female";"I've studied at least one of these disciplines (school or university)";"Bachelor degree";"right-handed";"";"Germany"
"PJ6";"BRAC2_vertAA_1st300";1;87;410,414999998407;"L";1;0;NA;"L";"black";"red";"magnit";2;0;"MacOs";"Chrome";"1440x697";1;0;0;0;"27";"female";"I've studied at least one of these disciplines (school or university)";"Bachelor degree";"right-handed";"";"Germany"
"PJ6";"BRAC2_vertAA_1st300";1;88;748,129999999888;"L";1;1;NA;"A";"black";"blue";"magnit";6;0;"MacOs";"Chrome";"1440x697";0;1;1;0;"27";"female";"I've studied at least one of these disciplines (school or university)";"Bachelor degree";"right-handed";"";"Germany"
"PJ6";"BRAC2_vertAA_1st300";1;89;534,615000003949;"L";1;0;NA;"L";"black";"blue";"magnit";3;0;"MacOs";"Chrome";"1440x697";0;1;0;1;"27";"female";"I've studied at least one of these disciplines (school or university)";"Bachelor degree";"right-handed";"";"Germany"
"PJ6";"BRAC2_vertAA_1st300";1;90;464,240000001155;"A";1;0;NA;"A";"black";"red";"parity";9;0;"MacOs";"Chrome";"1440x697";1;1;1;0;"27";"female";"I've studied at least one of these disciplines (school or university)";"Bachelor degree";"right-handed";"";"Germany"
"PJ6";"BRAC2_vertAA_1st300";1;91;734,010000000242;"L";1;0;NA;"L";"black";"red";"parity";6;0;"MacOs";"Chrome";"1440x697";0;1;0;0;"27";"female";"I've studied at least one of these disciplines (school or university)";"Bachelor degree";"right-handed";"";"Germany"
"PJ6";"BRAC2_vertAA_1st300";1;92;555,820000001462;"A";1;0;NA;"A";"black";"blue";"parity";9;0;"MacOs";"Chrome";"1440x697";0;1;1;0;"27";"female";"I've studied at least one of these disciplines (school or university)";"Bachelor degree";"right-handed";"";"Germany"
"PJ6";"BRAC2_vertAA_1st300";1;93;787,385000003269;"L";1;0;NA;"L";"black";"red";"magnit";1;0;"MacOs";"Chrome";"1440x697";1;1;1;0;"27";"female";"I've studied at least one of these disciplines (school or university)";"Bachelor degree";"right-handed";"";"Germany"
"PJ6";"BRAC2_vertAA_1st300";1;94;597,19000000041;"A";1;0;NA;"A";"black";"blue";"magnit";7;0;"MacOs";"Chrome";"1440x697";0;1;1;0;"27";"female";"I've studied at least one of these disciplines (school or university)";"Bachelor degree";"right-handed";"";"Germany"
"PJ6";"BRAC2_vertAA_1st300";1;95;537,739999999758;"L";1;0;NA;"L";"black";"blue";"parity";8;0;"MacOs";"Chrome";"1440x697";1;1;0;0;"27";"female";"I've studied at least one of these disciplines (school or university)";"Bachelor degree";"right-handed";"";"Germany"
"PJ6";"BRAC2_vertAA_1st300";2;0;837,319999998901;"L";1;0;NA;"L";"black";"blue";"parity";4;300;"MacOs";"Chrome";"1440x697";99;99;99;99;"27";"female";"I've studied at least one of these disciplines (school or university)";"Bachelor degree";"right-handed";"";"Germany"
"PJ6";"BRAC2_vertAA_1st300";2;1;486,649999998743;"L";1;0;NA;"L";"black";"blue";"parity";8;300;"MacOs";"Chrome";"1440x697";0;0;0;0;"27";"female";"I've studied at least one of these disciplines (school or university)";"Bachelor degree";"right-handed";"";"Germany"
"PJ6";"BRAC2_vertAA_1st300";2;2;720,209999999497;"A";1;0;NA;"A";"black";"red";"parity";1;300;"MacOs";"Chrome";"1440x697";0;1;1;0;"27";"female";"I've studied at least one of these disciplines (school or university)";"Bachelor degree";"right-handed";"";"Germany"
"PJ6";"BRAC2_vertAA_1st300";2;3;634,14000000176;"A";1;0;NA;"A";"black";"red";"magnit";6;300;"MacOs";"Chrome";"1440x697";1;0;0;0;"27";"female";"I've studied at least one of these disciplines (school or university)";"Bachelor degree";"right-handed";"";"Germany"
"PJ6";"BRAC2_vertAA_1st300";2;4;755,864999999059;"A";1;0;NA;"A";"black";"blue";"parity";3;300;"MacOs";"Chrome";"1440x697";1;0;1;0;"27";"female";"I've studied at least one of these disciplines (school or university)";"Bachelor degree";"right-handed";"";"Germany"
"PJ6";"BRAC2_vertAA_1st300";2;5;580,365000001621;"A";1;0;NA;"A";"black";"red";"parity";7;300;"MacOs";"Chrome";"1440x697";0;0;1;0;"27";"female";"I've studied at least one of these disciplines (school or university)";"Bachelor degree";"right-handed";"";"Germany"
"PJ6";"BRAC2_vertAA_1st300";2;6;644,594999997877;"A";1;0;NA;"A";"black";"red";"parity";9;300;"MacOs";"Chrome";"1440x697";0;0;0;0;"27";"female";"I've studied at least one of these disciplines (school or university)";"Bachelor degree";"right-handed";"";"Germany"
"PJ6";"BRAC2_vertAA_1st300";2;7;482,505000000121;"A";1;0;NA;"A";"black";"blue";"parity";7;300;"MacOs";"Chrome";"1440x697";0;0;1;0;"27";"female";"I've studied at least one of these disciplines (school or university)";"Bachelor degree";"right-handed";"";"Germany"
"PJ6";"BRAC2_vertAA_1st300";2;8;429,360000001965;"L";1;0;NA;"L";"black";"blue";"parity";2;300;"MacOs";"Chrome";"1440x697";0;1;0;0;"27";"female";"I've studied at least one of these disciplines (school or university)";"Bachelor degree";"right-handed";"";"Germany"
"PJ6";"BRAC2_vertAA_1st300";2;9;493,859999995213;"A";1;0;NA;"A";"black";"red";"parity";3;300;"MacOs";"Chrome";"1440x697";0;1;1;0;"27";"female";"I've studied at least one of these disciplines (school or university)";"Bachelor degree";"right-handed";"";"Germany"
"PJ6";"BRAC2_vertAA_1st300";2;10;399,734999999171;"L";1;0;NA;"L";"black";"red";"magnit";1;300;"MacOs";"Chrome";"1440x697";1;1;0;0;"27";"female";"I've studied at least one of these disciplines (school or university)";"Bachelor degree";"right-handed";"";"Germany"
"PJ6";"BRAC2_vertAA_1st300";2;11;612,574999999255;"L";1;0;NA;"L";"black";"red";"magnit";4;300;"MacOs";"Chrome";"1440x697";0;0;0;0;"27";"female";"I've studied at least one of these disciplines (school or university)";"Bachelor degree";"right-handed";"";"Germany"
"PJ6";"BRAC2_vertAA_1st300";2;12;513,87000000244;"L";1;0;NA;"L";"black";"red";"magnit";2;300;"MacOs";"Chrome";"1440x697";0;0;0;0;"27";"female";"I've studied at least one of these disciplines (school or university)";"Bachelor degree";"right-handed";"";"Germany"
"PJ6";"BRAC2_vertAA_1st300";2;13;534,285000001546;"A";1;0;NA;"A";"black";"blue";"parity";7;300;"MacOs";"Chrome";"1440x697";1;1;1;0;"27";"female";"I've studied at least one of these disciplines (school or university)";"Bachelor degree";"right-handed";"";"Germany"
"PJ6";"BRAC2_vertAA_1st300";2;14;494,344999999274;"L";1;0;NA;"L";"black";"red";"parity";2;300;"MacOs";"Chrome";"1440x697";0;1;1;0;"27";"female";"I've studied at least one of these disciplines (school or university)";"Bachelor degree";"right-handed";"";"Germany"
"PJ6";"BRAC2_vertAA_1st300";2;15;375,470000006258;"A";1;0;NA;"A";"black";"blue";"parity";1;300;"MacOs";"Chrome";"1440x697";0;1;1;0;"27";"female";"I've studied at least one of these disciplines (school or university)";"Bachelor degree";"right-handed";"";"Germany"
"PJ6";"BRAC2_vertAA_1st300";2;16;566,449999998556;"L";1;0;NA;"L";"black";"blue";"parity";6;300;"MacOs";"Chrome";"1440x697";0;1;0;0;"27";"female";"I've studied at least one of these disciplines (school or university)";"Bachelor degree";"right-handed";"";"Germany"
"PJ6";"BRAC2_vertAA_1st300";2;17;892,54999999702;"A";1;1;NA;"L";"black";"blue";"magnit";4;300;"MacOs";"Chrome";"1440x697";1;0;0;0;"27";"female";"I've studied at least one of these disciplines (school or university)";"Bachelor degree";"right-handed";"";"Germany"
"PJ6";"BRAC2_vertAA_1st300";2;18;615,859999998007;"A";1;0;NA;"A";"black";"red";"magnit";9;300;"MacOs";"Chrome";"1440x697";0;1;1;1;"27";"female";"I've studied at least one of these disciplines (school or university)";"Bachelor degree";"right-handed";"";"Germany"
"PJ6";"BRAC2_vertAA_1st300";2;19;1003,90999999945;"A";1;0;NA;"A";"black";"blue";"magnit";6;300;"MacOs";"Chrome";"1440x697";0;0;1;0;"27";"female";"I've studied at least one of these disciplines (school or university)";"Bachelor degree";"right-handed";"";"Germany"
"PJ6";"BRAC2_vertAA_1st300";2;20;587,074999995762;"A";1;0;NA;"A";"black";"blue";"parity";9;300;"MacOs";"Chrome";"1440x697";1;0;0;0;"27";"female";"I've studied at least one of these disciplines (school or university)";"Bachelor degree";"right-handed";"";"Germany"
"PJ6";"BRAC2_vertAA_1st300";2;21;927,855000001844;"A";1;0;NA;"A";"black";"red";"magnit";6;300;"MacOs";"Chrome";"1440x697";1;0;1;0;"27";"female";"I've studied at least one of these disciplines (school or university)";"Bachelor degree";"right-handed";"";"Germany"
"PJ6";"BRAC2_vertAA_1st300";2;22;628,829999994021;"L";1;0;NA;"L";"black";"blue";"parity";8;300;"MacOs";"Chrome";"1440x697";1;1;1;0;"27";"female";"I've studied at least one of these disciplines (school or university)";"Bachelor degree";"right-handed";"";"Germany"
"PJ6";"BRAC2_vertAA_1st300";2;23;1148,40500000003;"L";1;0;NA;"L";"black";"blue";"magnit";2;300;"MacOs";"Chrome";"1440x697";1;0;0;0;"27";"female";"I've studied at least one of these disciplines (school or university)";"Bachelor degree";"right-handed";"";"Germany"
"PJ6";"BRAC2_vertAA_1st300";2;24;1205,3349999988;"L";1;0;NA;"L";"black";"red";"magnit";3;300;"MacOs";"Chrome";"1440x697";0;0;1;0;"27";"female";"I've studied at least one of these disciplines (school or university)";"Bachelor degree";"right-handed";"";"Germany"
"PJ6";"BRAC2_vertAA_1st300";2;25;548,755000003381;"A";1;0;NA;"A";"black";"red";"magnit";8;300;"MacOs";"Chrome";"1440x697";0;1;0;0;"27";"female";"I've studied at least one of these disciplines (school or university)";"Bachelor degree";"right-handed";"";"Germany"
"PJ6";"BRAC2_vertAA_1st300";2;26;552,600000002654;"A";1;0;NA;"A";"black";"red";"parity";7;300;"MacOs";"Chrome";"1440x697";1;0;0;0;"27";"female";"I've studied at least one of these disciplines (school or university)";"Bachelor degree";"right-handed";"";"Germany"
"PJ6";"BRAC2_vertAA_1st300";2;27;771,165000005625;"L";1;0;NA;"L";"black";"red";"parity";4;300;"MacOs";"Chrome";"1440x697";0;1;0;0;"27";"female";"I've studied at least one of these disciplines (school or university)";"Bachelor degree";"right-handed";"";"Germany"
"PJ6";"BRAC2_vertAA_1st300";2;28;519,994999994989;"L";1;0;NA;"L";"black";"red";"magnit";1;300;"MacOs";"Chrome";"1440x697";1;0;0;0;"27";"female";"I've studied at least one of these disciplines (school or university)";"Bachelor degree";"right-handed";"";"Germany"
"PJ6";"BRAC2_vertAA_1st300";2;29;700,494999997318;"L";1;1;NA;"A";"black";"red";"parity";3;300;"MacOs";"Chrome";"1440x697";1;1;0;0;"27";"female";"I've studied at least one of these disciplines (school or university)";"Bachelor degree";"right-handed";"";"Germany"
"PJ6";"BRAC2_vertAA_1st300";2;30;422,445000004023;"L";1;0;NA;"L";"black";"blue";"magnit";4;300;"MacOs";"Chrome";"1440x697";1;1;1;1;"27";"female";"I've studied at least one of these disciplines (school or university)";"Bachelor degree";"right-handed";"";"Germany"
"PJ6";"BRAC2_vertAA_1st300";2;31;601,170000001788;"L";1;0;NA;"L";"black";"blue";"magnit";2;300;"MacOs";"Chrome";"1440x697";0;0;0;0;"27";"female";"I've studied at least one of these disciplines (school or university)";"Bachelor degree";"right-handed";"";"Germany"
"PJ6";"BRAC2_vertAA_1st300";2;32;488,399999994785;"A";1;0;NA;"A";"black";"blue";"magnit";9;300;"MacOs";"Chrome";"1440x697";0;1;0;0;"27";"female";"I've studied at least one of these disciplines (school or university)";"Bachelor degree";"right-handed";"";"Germany"
"PJ6";"BRAC2_vertAA_1st300";2;33;705,205000005662;"L";1;0;NA;"L";"black";"blue";"magnit";1;300;"MacOs";"Chrome";"1440x697";0;1;0;0;"27";"female";"I've studied at least one of these disciplines (school or university)";"Bachelor degree";"right-handed";"";"Germany"
"PJ6";"BRAC2_vertAA_1st300";2;34;697,854999998584;"A";1;0;NA;"A";"black";"red";"magnit";8;300;"MacOs";"Chrome";"1440x697";0;1;1;0;"27";"female";"I've studied at least one of these disciplines (school or university)";"Bachelor degree";"right-handed";"";"Germany"
"PJ6";"BRAC2_vertAA_1st300";2;35;762,905000003288;"L";1;0;NA;"L";"black";"red";"parity";6;300;"MacOs";"Chrome";"1440x697";1;1;0;0;"27";"female";"I've studied at least one of these disciplines (school or university)";"Bachelor degree";"right-handed";"";"Germany"
"PJ6";"BRAC2_vertAA_1st300";2;36;512,20499999891;"A";1;0;NA;"A";"black";"blue";"magnit";7;300;"MacOs";"Chrome";"1440x697";1;1;1;0;"27";"female";"I've studied at least one of these disciplines (school or university)";"Bachelor degree";"right-handed";"";"Germany"
"PJ6";"BRAC2_vertAA_1st300";2;37;601,044999995967;"A";1;0;NA;"A";"black";"red";"magnit";8;300;"MacOs";"Chrome";"1440x697";0;0;1;0;"27";"female";"I've studied at least one of these disciplines (school or university)";"Bachelor degree";"right-handed";"";"Germany"
"PJ6";"BRAC2_vertAA_1st300";2;38;516,795000003185;"L";1;0;NA;"L";"black";"red";"magnit";3;300;"MacOs";"Chrome";"1440x697";0;1;0;0;"27";"female";"I've studied at least one of these disciplines (school or university)";"Bachelor degree";"right-handed";"";"Germany"
"PJ6";"BRAC2_vertAA_1st300";2;39;616,215000001946;"A";1;0;NA;"A";"black";"blue";"magnit";7;300;"MacOs";"Chrome";"1440x697";0;1;1;0;"27";"female";"I've studied at least one of these disciplines (school or university)";"Bachelor degree";"right-handed";"";"Germany"
"PJ6";"BRAC2_vertAA_1st300";2;40;524,310000000754;"L";1;0;NA;"L";"black";"blue";"parity";2;300;"MacOs";"Chrome";"1440x697";1;1;0;0;"27";"female";"I've studied at least one of these disciplines (school or university)";"Bachelor degree";"right-handed";"";"Germany"
"PJ6";"BRAC2_vertAA_1st300";2;41;538,979999997653;"L";1;0;NA;"L";"black";"blue";"parity";4;300;"MacOs";"Chrome";"1440x697";0;0;0;0;"27";"female";"I've studied at least one of these disciplines (school or university)";"Bachelor degree";"right-handed";"";"Germany"
"PJ6";"BRAC2_vertAA_1st300";2;42;381,794999993872;"L";1;0;NA;"L";"black";"blue";"parity";2;300;"MacOs";"Chrome";"1440x697";0;0;0;0;"27";"female";"I've studied at least one of these disciplines (school or university)";"Bachelor degree";"right-handed";"";"Germany"
"PJ6";"BRAC2_vertAA_1st300";2;43;868,195000002859;"L";1;0;NA;"L";"black";"blue";"magnit";4;300;"MacOs";"Chrome";"1440x697";1;0;0;0;"27";"female";"I've studied at least one of these disciplines (school or university)";"Bachelor degree";"right-handed";"";"Germany"
"PJ6";"BRAC2_vertAA_1st300";2;44;621,899999998277;"L";1;0;NA;"L";"black";"blue";"magnit";2;300;"MacOs";"Chrome";"1440x697";0;0;0;0;"27";"female";"I've studied at least one of these disciplines (school or university)";"Bachelor degree";"right-handed";"";"Germany"
"PJ6";"BRAC2_vertAA_1st300";2;45;534,729999999283;"A";1;0;NA;"A";"black";"blue";"parity";7;300;"MacOs";"Chrome";"1440x697";1;1;0;0;"27";"female";"I've studied at least one of these disciplines (school or university)";"Bachelor degree";"right-handed";"";"Germany"
"PJ6";"BRAC2_vertAA_1st300";2;46;488,760000000242;"L";1;0;NA;"L";"black";"red";"parity";2;300;"MacOs";"Chrome";"1440x697";0;1;1;0;"27";"female";"I've studied at least one of these disciplines (school or university)";"Bachelor degree";"right-handed";"";"Germany"
"PJ6";"BRAC2_vertAA_1st300";2;47;745,080000000773;"L";1;1;NA;"A";"black";"blue";"magnit";6;300;"MacOs";"Chrome";"1440x697";1;1;1;0;"27";"female";"I've studied at least one of these disciplines (school or university)";"Bachelor degree";"right-handed";"";"Germany"
"PJ6";"BRAC2_vertAA_1st300";2;48;406,460000005551;"L";1;0;NA;"L";"black";"red";"parity";4;300;"MacOs";"Chrome";"1440x697";1;1;1;1;"27";"female";"I've studied at least one of these disciplines (school or university)";"Bachelor degree";"right-handed";"";"Germany"
"PJ6";"BRAC2_vertAA_1st300";2;49;396,999999997206;"L";1;0;NA;"L";"black";"blue";"parity";6;300;"MacOs";"Chrome";"1440x697";0;0;1;0;"27";"female";"I've studied at least one of these disciplines (school or university)";"Bachelor degree";"right-handed";"";"Germany"
"PJ6";"BRAC2_vertAA_1st300";2;50;452,695000000065;"L";1;0;NA;"L";"black";"red";"magnit";2;300;"MacOs";"Chrome";"1440x697";1;0;1;0;"27";"female";"I've studied at least one of these disciplines (school or university)";"Bachelor degree";"right-handed";"";"Germany"
"PJ6";"BRAC2_vertAA_1st300";2;51;549,924999999348;"L";1;0;NA;"L";"black";"red";"parity";6;300;"MacOs";"Chrome";"1440x697";1;0;0;0;"27";"female";"I've studied at least one of these disciplines (school or university)";"Bachelor degree";"right-handed";"";"Germany"
"PJ6";"BRAC2_vertAA_1st300";2;52;489,049999996554;"A";1;0;NA;"A";"black";"red";"magnit";7;300;"MacOs";"Chrome";"1440x697";1;1;0;0;"27";"female";"I've studied at least one of these disciplines (school or university)";"Bachelor degree";"right-handed";"";"Germany"
"PJ6";"BRAC2_vertAA_1st300";2;53;438,629999996861;"A";1;0;NA;"A";"black";"red";"parity";9;300;"MacOs";"Chrome";"1440x697";1;0;0;0;"27";"female";"I've studied at least one of these disciplines (school or university)";"Bachelor degree";"right-handed";"";"Germany"
"PJ6";"BRAC2_vertAA_1st300";2;54;549,500000000931;"L";1;0;NA;"L";"black";"blue";"magnit";3;300;"MacOs";"Chrome";"1440x697";1;1;1;0;"27";"female";"I've studied at least one of these disciplines (school or university)";"Bachelor degree";"right-handed";"";"Germany"
"PJ6";"BRAC2_vertAA_1st300";2;55;442,409999995958;"A";1;0;NA;"A";"black";"red";"parity";7;300;"MacOs";"Chrome";"1440x697";1;1;1;0;"27";"female";"I've studied at least one of these disciplines (school or university)";"Bachelor degree";"right-handed";"";"Germany"
"PJ6";"BRAC2_vertAA_1st300";2;56;494,075000002282;"L";1;0;NA;"L";"black";"red";"parity";2;300;"MacOs";"Chrome";"1440x697";0;1;0;0;"27";"female";"I've studied at least one of these disciplines (school or university)";"Bachelor degree";"right-handed";"";"Germany"
"PJ6";"BRAC2_vertAA_1st300";2;57;613,949999998789;"L";1;1;NA;"A";"black";"blue";"magnit";9;300;"MacOs";"Chrome";"1440x697";1;1;1;0;"27";"female";"I've studied at least one of these disciplines (school or university)";"Bachelor degree";"right-handed";"";"Germany"
"PJ6";"BRAC2_vertAA_1st300";2;58;440,319999994244;"A";1;1;NA;"L";"black";"blue";"parity";4;300;"MacOs";"Chrome";"1440x697";1;1;0;1;"27";"female";"I've studied at least one of these disciplines (school or university)";"Bachelor degree";"right-handed";"";"Germany"
"PJ6";"BRAC2_vertAA_1st300";2;59;493,975000004983;"L";1;1;NA;"A";"black";"red";"parity";1;300;"MacOs";"Chrome";"1440x697";0;1;1;1;"27";"female";"I've studied at least one of these disciplines (school or university)";"Bachelor degree";"right-handed";"";"Germany"
"PJ6";"BRAC2_vertAA_1st300";2;60;562,470000004396;"A";1;0;NA;"A";"black";"red";"magnit";7;300;"MacOs";"Chrome";"1440x697";1;0;0;1;"27";"female";"I've studied at least one of these disciplines (school or university)";"Bachelor degree";"right-handed";"";"Germany"
"PJ6";"BRAC2_vertAA_1st300";2;61;612,619999999879;"A";1;0;NA;"A";"black";"blue";"parity";1;300;"MacOs";"Chrome";"1440x697";1;0;1;0;"27";"female";"I've studied at least one of these disciplines (school or university)";"Bachelor degree";"right-handed";"";"Germany"
"PJ6";"BRAC2_vertAA_1st300";2;62;510,959999999497;"L";1;0;NA;"L";"black";"red";"parity";8;300;"MacOs";"Chrome";"1440x697";0;1;1;0;"27";"female";"I've studied at least one of these disciplines (school or university)";"Bachelor degree";"right-handed";"";"Germany"
"PJ6";"BRAC2_vertAA_1st300";2;63;607,70500000217;"L";1;0;NA;"L";"black";"blue";"parity";6;300;"MacOs";"Chrome";"1440x697";0;0;1;0;"27";"female";"I've studied at least one of these disciplines (school or university)";"Bachelor degree";"right-handed";"";"Germany"
"PJ6";"BRAC2_vertAA_1st300";2;64;1386,44999999809;"A";1;1;NA;"L";"black";"blue";"magnit";3;300;"MacOs";"Chrome";"1440x697";1;0;0;0;"27";"female";"I've studied at least one of these disciplines (school or university)";"Bachelor degree";"right-handed";"";"Germany"
"PJ6";"BRAC2_vertAA_1st300";2;65;1658,63499999978;"A";1;0;NA;"A";"black";"blue";"magnit";8;300;"MacOs";"Chrome";"1440x697";0;1;0;1;"27";"female";"I've studied at least one of these disciplines (school or university)";"Bachelor degree";"right-handed";"";"Germany"
"PJ6";"BRAC2_vertAA_1st300";2;66;1112,98499999964;"A";1;0;NA;"A";"black";"blue";"parity";9;300;"MacOs";"Chrome";"1440x697";1;0;0;0;"27";"female";"I've studied at least one of these disciplines (school or university)";"Bachelor degree";"right-handed";"";"Germany"
"PJ6";"BRAC2_vertAA_1st300";2;67;982,739999999525;"A";1;0;NA;"A";"black";"red";"magnit";7;300;"MacOs";"Chrome";"1440x697";1;0;1;0;"27";"female";"I've studied at least one of these disciplines (school or university)";"Bachelor degree";"right-handed";"";"Germany"
"PJ6";"BRAC2_vertAA_1st300";2;68;486,214999997057;"A";1;0;NA;"A";"black";"blue";"magnit";8;300;"MacOs";"Chrome";"1440x697";0;0;1;0;"27";"female";"I've studied at least one of these disciplines (school or university)";"Bachelor degree";"right-handed";"";"Germany"
"PJ6";"BRAC2_vertAA_1st300";2;69;509,384999997448;"L";1;1;NA;"A";"black";"red";"parity";1;300;"MacOs";"Chrome";"1440x697";1;0;1;0;"27";"female";"I've studied at least one of these disciplines (school or university)";"Bachelor degree";"right-handed";"";"Germany"
"PJ6";"BRAC2_vertAA_1st300";2;70;411,030000002822;"L";1;0;NA;"L";"black";"red";"parity";8;300;"MacOs";"Chrome";"1440x697";0;1;0;1;"27";"female";"I've studied at least one of these disciplines (school or university)";"Bachelor degree";"right-handed";"";"Germany"
"PJ6";"BRAC2_vertAA_1st300";2;71;386,61500000325;"L";1;0;NA;"L";"black";"blue";"magnit";1;300;"MacOs";"Chrome";"1440x697";1;0;1;0;"27";"female";"I've studied at least one of these disciplines (school or university)";"Bachelor degree";"right-handed";"";"Germany"
"PJ6";"BRAC2_vertAA_1st300";2;72;508,085000001127;"A";1;0;NA;"A";"black";"blue";"magnit";9;300;"MacOs";"Chrome";"1440x697";0;1;0;0;"27";"female";"I've studied at least one of these disciplines (school or university)";"Bachelor degree";"right-handed";"";"Germany"
"PJ6";"BRAC2_vertAA_1st300";2;73;614,535000000615;"A";1;0;NA;"A";"black";"blue";"parity";1;300;"MacOs";"Chrome";"1440x697";1;0;0;0;"27";"female";"I've studied at least one of these disciplines (school or university)";"Bachelor degree";"right-handed";"";"Germany"
"PJ6";"BRAC2_vertAA_1st300";2;74;969,564999999246;"L";1;0;NA;"L";"black";"red";"parity";4;300;"MacOs";"Chrome";"1440x697";0;1;1;0;"27";"female";"I've studied at least one of these disciplines (school or university)";"Bachelor degree";"right-handed";"";"Germany"
"PJ6";"BRAC2_vertAA_1st300";2;75;556,534999995958;"A";1;0;NA;"A";"black";"red";"magnit";9;300;"MacOs";"Chrome";"1440x697";1;1;0;0;"27";"female";"I've studied at least one of these disciplines (school or university)";"Bachelor degree";"right-handed";"";"Germany"
"PJ6";"BRAC2_vertAA_1st300";2;76;398,750000000466;"L";1;0;NA;"L";"black";"red";"magnit";4;300;"MacOs";"Chrome";"1440x697";0;1;0;0;"27";"female";"I've studied at least one of these disciplines (school or university)";"Bachelor degree";"right-handed";"";"Germany"
"PJ6";"BRAC2_vertAA_1st300";2;77;619,245000001509;"L";1;0;NA;"L";"black";"blue";"magnit";3;300;"MacOs";"Chrome";"1440x697";0;0;1;0;"27";"female";"I've studied at least one of these disciplines (school or university)";"Bachelor degree";"right-handed";"";"Germany"
"PJ6";"BRAC2_vertAA_1st300";2;78;463,06999999797;"A";1;0;NA;"A";"black";"blue";"magnit";8;300;"MacOs";"Chrome";"1440x697";0;1;0;0;"27";"female";"I've studied at least one of these disciplines (school or university)";"Bachelor degree";"right-handed";"";"Germany"
"PJ6";"BRAC2_vertAA_1st300";2;79;642,285000001779;"A";1;0;NA;"A";"black";"red";"parity";9;300;"MacOs";"Chrome";"1440x697";1;0;1;0;"27";"female";"I've studied at least one of these disciplines (school or university)";"Bachelor degree";"right-handed";"";"Germany"
"PJ6";"BRAC2_vertAA_1st300";2;80;577,814999996917;"L";1;0;NA;"L";"black";"red";"magnit";3;300;"MacOs";"Chrome";"1440x697";1;1;0;0;"27";"female";"I've studied at least one of these disciplines (school or university)";"Bachelor degree";"right-handed";"";"Germany"
"PJ6";"BRAC2_vertAA_1st300";2;81;1147,05500000133;"A";1;0;NA;"A";"black";"red";"magnit";6;300;"MacOs";"Chrome";"1440x697";0;1;0;0;"27";"female";"I've studied at least one of these disciplines (school or university)";"Bachelor degree";"right-handed";"";"Germany"
"PJ6";"BRAC2_vertAA_1st300";2;82;422,659999996657;"L";1;0;NA;"L";"black";"red";"magnit";2;300;"MacOs";"Chrome";"1440x697";0;1;0;0;"27";"female";"I've studied at least one of these disciplines (school or university)";"Bachelor degree";"right-handed";"";"Germany"
"PJ6";"BRAC2_vertAA_1st300";2;83;531,849999999395;"L";1;0;NA;"L";"black";"red";"parity";6;300;"MacOs";"Chrome";"1440x697";1;0;0;0;"27";"female";"I've studied at least one of these disciplines (school or university)";"Bachelor degree";"right-handed";"";"Germany"
"PJ6";"BRAC2_vertAA_1st300";2;84;426,24500000244;"L";1;0;NA;"L";"black";"blue";"parity";8;300;"MacOs";"Chrome";"1440x697";0;0;1;0;"27";"female";"I've studied at least one of these disciplines (school or university)";"Bachelor degree";"right-handed";"";"Germany"
"PJ6";"BRAC2_vertAA_1st300";2;85;635,540000003064;"A";1;0;NA;"A";"black";"blue";"parity";3;300;"MacOs";"Chrome";"1440x697";0;1;0;0;"27";"female";"I've studied at least one of these disciplines (school or university)";"Bachelor degree";"right-handed";"";"Germany"
"PJ6";"BRAC2_vertAA_1st300";2;86;613,334999994608;"L";1;0;NA;"L";"black";"red";"parity";8;300;"MacOs";"Chrome";"1440x697";0;1;1;0;"27";"female";"I've studied at least one of these disciplines (school or university)";"Bachelor degree";"right-handed";"";"Germany"
"PJ6";"BRAC2_vertAA_1st300";2;87;824,204999997281;"A";1;0;NA;"A";"black";"red";"magnit";9;300;"MacOs";"Chrome";"1440x697";1;1;0;0;"27";"female";"I've studied at least one of these disciplines (school or university)";"Bachelor degree";"right-handed";"";"Germany"
"PJ6";"BRAC2_vertAA_1st300";2;88;1096,6800000025;"A";1;0;NA;"A";"black";"red";"parity";3;300;"MacOs";"Chrome";"1440x697";1;0;0;0;"27";"female";"I've studied at least one of these disciplines (school or university)";"Bachelor degree";"right-handed";"";"Germany"
"PJ6";"BRAC2_vertAA_1st300";2;89;1247,60000000242;"L";1;0;NA;"L";"black";"red";"magnit";1;300;"MacOs";"Chrome";"1440x697";1;1;0;0;"27";"female";"I've studied at least one of these disciplines (school or university)";"Bachelor degree";"right-handed";"";"Germany"
"PJ6";"BRAC2_vertAA_1st300";2;90;1355,60999999871;"L";1;1;NA;"A";"black";"blue";"magnit";6;300;"MacOs";"Chrome";"1440x697";0;1;1;0;"27";"female";"I've studied at least one of these disciplines (school or university)";"Bachelor degree";"right-handed";"";"Germany"
"PJ6";"BRAC2_vertAA_1st300";2;91;497,319999994943;"L";1;0;NA;"L";"black";"red";"magnit";4;300;"MacOs";"Chrome";"1440x697";0;1;1;1;"27";"female";"I've studied at least one of these disciplines (school or university)";"Bachelor degree";"right-handed";"";"Germany"
"PJ6";"BRAC2_vertAA_1st300";2;92;656,25;"A";1;0;NA;"A";"black";"blue";"parity";9;300;"MacOs";"Chrome";"1440x697";1;1;1;0;"27";"female";"I've studied at least one of these disciplines (school or university)";"Bachelor degree";"right-handed";"";"Germany"
"PJ6";"BRAC2_vertAA_1st300";2;93;1039,61999999592;"A";1;0;NA;"A";"black";"blue";"magnit";7;300;"MacOs";"Chrome";"1440x697";1;0;0;0;"27";"female";"I've studied at least one of these disciplines (school or university)";"Bachelor degree";"right-handed";"";"Germany"
"PJ6";"BRAC2_vertAA_1st300";2;94;987,665000000736;"A";1;0;NA;"A";"black";"blue";"parity";3;300;"MacOs";"Chrome";"1440x697";1;0;0;0;"27";"female";"I've studied at least one of these disciplines (school or university)";"Bachelor degree";"right-handed";"";"Germany"
"PJ6";"BRAC2_vertAA_1st300";2;95;896,889999996405;"A";1;1;NA;"L";"black";"blue";"magnit";1;300;"MacOs";"Chrome";"1440x697";1;1;0;0;"27";"female";"I've studied at least one of these disciplines (school or university)";"Bachelor degree";"right-handed";"";"Germany"
"PJ6";"BRAC2_vertAA_1st300";3;0;628,35500000068;"L";1;0;NA;"L";"black";"blue";"magnit";1;0;"MacOs";"Chrome";"1440x697";99;99;99;99;"27";"female";"I've studied at least one of these disciplines (school or university)";"Bachelor degree";"right-handed";"";"Germany"
"PJ6";"BRAC2_vertAA_1st300";3;1;497,750000002095;"L";1;0;NA;"L";"black";"blue";"magnit";2;0;"MacOs";"Chrome";"1440x697";0;0;0;0;"27";"female";"I've studied at least one of these disciplines (school or university)";"Bachelor degree";"right-handed";"";"Germany"
"PJ6";"BRAC2_vertAA_1st300";3;2;506,955000004265;"L";1;0;NA;"L";"black";"red";"parity";4;0;"MacOs";"Chrome";"1440x697";1;0;1;0;"27";"female";"I've studied at least one of these disciplines (school or university)";"Bachelor degree";"right-handed";"";"Germany"
"PJ6";"BRAC2_vertAA_1st300";3;3;533,430000003194;"L";1;0;NA;"L";"black";"red";"magnit";3;0;"MacOs";"Chrome";"1440x697";1;0;0;0;"27";"female";"I've studied at least one of these disciplines (school or university)";"Bachelor degree";"right-handed";"";"Germany"
"PJ6";"BRAC2_vertAA_1st300";3;4;576,014999998733;"L";1;0;NA;"L";"black";"red";"parity";8;0;"MacOs";"Chrome";"1440x697";1;0;0;0;"27";"female";"I've studied at least one of these disciplines (school or university)";"Bachelor degree";"right-handed";"";"Germany"
"PJ6";"BRAC2_vertAA_1st300";3;5;706,555000004126;"A";1;0;NA;"A";"black";"blue";"parity";3;0;"MacOs";"Chrome";"1440x697";0;1;1;0;"27";"female";"I've studied at least one of these disciplines (school or university)";"Bachelor degree";"right-handed";"";"Germany"
"PJ6";"BRAC2_vertAA_1st300";3;6;632,16000000108;"A";1;0;NA;"A";"black";"red";"parity";1;0;"MacOs";"Chrome";"1440x697";0;0;1;0;"27";"female";"I've studied at least one of these disciplines (school or university)";"Bachelor degree";"right-handed";"";"Germany"
"PJ6";"BRAC2_vertAA_1st300";3;7;634,48000000068;"L";1;0;NA;"L";"black";"blue";"parity";8;0;"MacOs";"Chrome";"1440x697";0;1;1;0;"27";"female";"I've studied at least one of these disciplines (school or university)";"Bachelor degree";"right-handed";"";"Germany"
"PJ6";"BRAC2_vertAA_1st300";3;8;980,450000002747;"L";1;0;NA;"L";"black";"red";"magnit";4;0;"MacOs";"Chrome";"1440x697";1;0;1;0;"27";"female";"I've studied at least one of these disciplines (school or university)";"Bachelor degree";"right-handed";"";"Germany"
"PJ6";"BRAC2_vertAA_1st300";3;9;1092,01000000024;"A";1;0;NA;"A";"black";"blue";"magnit";8;0;"MacOs";"Chrome";"1440x697";0;1;1;0;"27";"female";"I've studied at least one of these disciplines (school or university)";"Bachelor degree";"right-handed";"";"Germany"
"PJ6";"BRAC2_vertAA_1st300";3;10;960,984999998007;"L";1;0;NA;"L";"black";"blue";"magnit";4;0;"MacOs";"Chrome";"1440x697";0;1;0;0;"27";"female";"I've studied at least one of these disciplines (school or university)";"Bachelor degree";"right-handed";"";"Germany"
"PJ6";"BRAC2_vertAA_1st300";3;11;1004,28500000271;"A";1;0;NA;"A";"black";"blue";"parity";1;0;"MacOs";"Chrome";"1440x697";1;1;0;0;"27";"female";"I've studied at least one of these disciplines (school or university)";"Bachelor degree";"right-handed";"";"Germany"
"PJ6";"BRAC2_vertAA_1st300";3;12;1272,16999999667;"A";1;0;NA;"A";"black";"red";"parity";9;0;"MacOs";"Chrome";"1440x697";0;0;1;0;"27";"female";"I've studied at least one of these disciplines (school or university)";"Bachelor degree";"right-handed";"";"Germany"
"PJ6";"BRAC2_vertAA_1st300";3;13;1130,78499999386;"L";1;0;NA;"L";"black";"red";"parity";6;0;"MacOs";"Chrome";"1440x697";0;1;0;0;"27";"female";"I've studied at least one of these disciplines (school or university)";"Bachelor degree";"right-handed";"";"Germany"
"PJ6";"BRAC2_vertAA_1st300";3;14;654,735000003828;"A";1;0;NA;"A";"black";"blue";"parity";9;0;"MacOs";"Chrome";"1440x697";0;1;1;0;"27";"female";"I've studied at least one of these disciplines (school or university)";"Bachelor degree";"right-handed";"";"Germany"
"PJ6";"BRAC2_vertAA_1st300";3;15;438,079999999842;"L";1;0;NA;"L";"black";"red";"magnit";2;0;"MacOs";"Chrome";"1440x697";1;1;1;0;"27";"female";"I've studied at least one of these disciplines (school or university)";"Bachelor degree";"right-handed";"";"Germany"
"PJ6";"BRAC2_vertAA_1st300";3;16;500,704999998678;"L";1;0;NA;"L";"black";"blue";"magnit";3;0;"MacOs";"Chrome";"1440x697";0;0;1;0;"27";"female";"I've studied at least one of these disciplines (school or university)";"Bachelor degree";"right-handed";"";"Germany"
"PJ6";"BRAC2_vertAA_1st300";3;17;519,504999996396;"L";1;0;NA;"L";"black";"red";"parity";6;0;"MacOs";"Chrome";"1440x697";1;0;1;0;"27";"female";"I've studied at least one of these disciplines (school or university)";"Bachelor degree";"right-handed";"";"Germany"
"PJ6";"BRAC2_vertAA_1st300";3;18;652,715000003809;"A";1;0;NA;"A";"black";"red";"parity";7;0;"MacOs";"Chrome";"1440x697";0;1;0;0;"27";"female";"I've studied at least one of these disciplines (school or university)";"Bachelor degree";"right-handed";"";"Germany"
"PJ6";"BRAC2_vertAA_1st300";3;19;363,164999995381;"L";1;0;NA;"L";"black";"red";"magnit";1;0;"MacOs";"Chrome";"1440x697";1;1;0;0;"27";"female";"I've studied at least one of these disciplines (school or university)";"Bachelor degree";"right-handed";"";"Germany"
"PJ6";"BRAC2_vertAA_1st300";3;20;635,180000004824;"A";1;0;NA;"A";"black";"red";"parity";9;0;"MacOs";"Chrome";"1440x697";1;1;0;0;"27";"female";"I've studied at least one of these disciplines (school or university)";"Bachelor degree";"right-handed";"";"Germany"
"PJ6";"BRAC2_vertAA_1st300";3;21;1417,62000000011;"A";1;0;NA;"A";"black";"blue";"magnit";6;0;"MacOs";"Chrome";"1440x697";1;0;1;0;"27";"female";"I've studied at least one of these disciplines (school or university)";"Bachelor degree";"right-handed";"";"Germany"
"PJ6";"BRAC2_vertAA_1st300";3;22;806,820000005187;"A";1;0;NA;"A";"black";"red";"parity";3;0;"MacOs";"Chrome";"1440x697";1;0;1;0;"27";"female";"I've studied at least one of these disciplines (school or university)";"Bachelor degree";"right-handed";"";"Germany"
"PJ6";"BRAC2_vertAA_1st300";3;23;579,939999995753;"A";1;0;NA;"A";"black";"red";"magnit";9;0;"MacOs";"Chrome";"1440x697";1;0;0;0;"27";"female";"I've studied at least one of these disciplines (school or university)";"Bachelor degree";"right-handed";"";"Germany"
"PJ6";"BRAC2_vertAA_1st300";3;24;580,119999998715;"L";1;0;NA;"L";"black";"red";"parity";6;0;"MacOs";"Chrome";"1440x697";1;1;0;0;"27";"female";"I've studied at least one of these disciplines (school or university)";"Bachelor degree";"right-handed";"";"Germany"
"PJ6";"BRAC2_vertAA_1st300";3;25;1133,90500000236;"L";1;0;NA;"L";"black";"red";"magnit";3;0;"MacOs";"Chrome";"1440x697";1;0;0;0;"27";"female";"I've studied at least one of these disciplines (school or university)";"Bachelor degree";"right-handed";"";"Germany"
"PJ6";"BRAC2_vertAA_1st300";3;26;1516,77500000363;"A";1;0;NA;"A";"black";"blue";"parity";9;0;"MacOs";"Chrome";"1440x697";1;1;1;0;"27";"female";"I've studied at least one of these disciplines (school or university)";"Bachelor degree";"right-handed";"";"Germany"
"PJ6";"BRAC2_vertAA_1st300";3;27;534,339999998454;"A";1;0;NA;"A";"black";"blue";"parity";7;0;"MacOs";"Chrome";"1440x697";0;0;0;0;"27";"female";"I've studied at least one of these disciplines (school or university)";"Bachelor degree";"right-handed";"";"Germany"
"PJ6";"BRAC2_vertAA_1st300";3;28;337,214999999618;"L";1;1;NA;"A";"black";"red";"magnit";8;0;"MacOs";"Chrome";"1440x697";1;0;1;0;"27";"female";"I've studied at least one of these disciplines (school or university)";"Bachelor degree";"right-handed";"";"Germany"
"PJ6";"BRAC2_vertAA_1st300";3;29;527,580000001704;"A";1;0;NA;"A";"black";"blue";"magnit";9;0;"MacOs";"Chrome";"1440x697";0;0;1;1;"27";"female";"I've studied at least one of these disciplines (school or university)";"Bachelor degree";"right-handed";"";"Germany"
"PJ6";"BRAC2_vertAA_1st300";3;30;460,015000004089;"L";1;0;NA;"L";"black";"red";"magnit";3;0;"MacOs";"Chrome";"1440x697";0;1;1;0;"27";"female";"I've studied at least one of these disciplines (school or university)";"Bachelor degree";"right-handed";"";"Germany"
"PJ6";"BRAC2_vertAA_1st300";3;31;651,194999998668;"A";1;0;NA;"A";"black";"blue";"magnit";7;0;"MacOs";"Chrome";"1440x697";0;1;1;0;"27";"female";"I've studied at least one of these disciplines (school or university)";"Bachelor degree";"right-handed";"";"Germany"
"PJ6";"BRAC2_vertAA_1st300";3;32;525,740000004647;"L";1;0;NA;"L";"black";"blue";"parity";4;0;"MacOs";"Chrome";"1440x697";1;1;0;0;"27";"female";"I've studied at least one of these disciplines (school or university)";"Bachelor degree";"right-handed";"";"Germany"
"PJ6";"BRAC2_vertAA_1st300";3;33;387,080000000307;"L";1;0;NA;"L";"black";"red";"magnit";2;0;"MacOs";"Chrome";"1440x697";1;0;1;0;"27";"female";"I've studied at least one of these disciplines (school or university)";"Bachelor degree";"right-handed";"";"Germany"
"PJ6";"BRAC2_vertAA_1st300";3;34;492,409999998985;"A";1;0;NA;"A";"black";"red";"magnit";9;0;"MacOs";"Chrome";"1440x697";0;1;0;0;"27";"female";"I've studied at least one of these disciplines (school or university)";"Bachelor degree";"right-handed";"";"Germany"
"PJ6";"BRAC2_vertAA_1st300";3;35;606,410000000382;"L";1;0;NA;"L";"black";"red";"parity";8;0;"MacOs";"Chrome";"1440x697";1;1;0;0;"27";"female";"I've studied at least one of these disciplines (school or university)";"Bachelor degree";"right-handed";"";"Germany"
"PJ6";"BRAC2_vertAA_1st300";3;36;1086,81999999681;"L";1;0;NA;"L";"black";"blue";"magnit";2;0;"MacOs";"Chrome";"1440x697";1;0;1;0;"27";"female";"I've studied at least one of these disciplines (school or university)";"Bachelor degree";"right-handed";"";"Germany"
"PJ6";"BRAC2_vertAA_1st300";3;37;638,149999998976;"L";1;0;NA;"L";"black";"blue";"parity";6;0;"MacOs";"Chrome";"1440x697";1;0;0;0;"27";"female";"I've studied at least one of these disciplines (school or university)";"Bachelor degree";"right-handed";"";"Germany"
"PJ6";"BRAC2_vertAA_1st300";3;38;1393,48500000057;"A";1;0;NA;"A";"black";"red";"magnit";7;0;"MacOs";"Chrome";"1440x697";1;1;1;0;"27";"female";"I've studied at least one of these disciplines (school or university)";"Bachelor degree";"right-handed";"";"Germany"
"PJ6";"BRAC2_vertAA_1st300";3;39;476,715000004275;"L";1;0;NA;"L";"black";"red";"magnit";1;0;"MacOs";"Chrome";"1440x697";0;1;0;0;"27";"female";"I've studied at least one of these disciplines (school or university)";"Bachelor degree";"right-handed";"";"Germany"
"PJ6";"BRAC2_vertAA_1st300";3;40;459,060000000987;"L";1;0;NA;"L";"black";"red";"parity";4;0;"MacOs";"Chrome";"1440x697";1;0;0;0;"27";"female";"I've studied at least one of these disciplines (school or university)";"Bachelor degree";"right-handed";"";"Germany"
"PJ6";"BRAC2_vertAA_1st300";3;41;969,709999997634;"L";1;0;NA;"L";"black";"red";"magnit";2;0;"MacOs";"Chrome";"1440x697";1;0;0;0;"27";"female";"I've studied at least one of these disciplines (school or university)";"Bachelor degree";"right-handed";"";"Germany"
"PJ6";"BRAC2_vertAA_1st300";3;42;415,050000003306;"L";1;0;NA;"L";"black";"blue";"magnit";1;0;"MacOs";"Chrome";"1440x697";0;0;1;0;"27";"female";"I've studied at least one of these disciplines (school or university)";"Bachelor degree";"right-handed";"";"Germany"
"PJ6";"BRAC2_vertAA_1st300";3;43;563,925000002375;"A";1;0;NA;"A";"black";"blue";"magnit";8;0;"MacOs";"Chrome";"1440x697";0;1;0;0;"27";"female";"I've studied at least one of these disciplines (school or university)";"Bachelor degree";"right-handed";"";"Germany"
"PJ6";"BRAC2_vertAA_1st300";3;44;912,670000005048;"L";1;0;NA;"L";"black";"red";"parity";2;0;"MacOs";"Chrome";"1440x697";1;1;1;0;"27";"female";"I've studied at least one of these disciplines (school or university)";"Bachelor degree";"right-handed";"";"Germany"
"PJ6";"BRAC2_vertAA_1st300";3;45;575,584999998799;"A";1;0;NA;"A";"black";"blue";"magnit";9;0;"MacOs";"Chrome";"1440x697";1;1;1;0;"27";"female";"I've studied at least one of these disciplines (school or university)";"Bachelor degree";"right-handed";"";"Germany"
"PJ6";"BRAC2_vertAA_1st300";3;46;912,954999999609;"L";1;0;NA;"L";"black";"blue";"parity";2;0;"MacOs";"Chrome";"1440x697";1;1;0;0;"27";"female";"I've studied at least one of these disciplines (school or university)";"Bachelor degree";"right-handed";"";"Germany"
"PJ6";"BRAC2_vertAA_1st300";3;47;761,019999998156;"A";1;0;NA;"A";"black";"blue";"magnit";9;0;"MacOs";"Chrome";"1440x697";1;1;0;0;"27";"female";"I've studied at least one of these disciplines (school or university)";"Bachelor degree";"right-handed";"";"Germany"
"PJ6";"BRAC2_vertAA_1st300";3;48;581,039999997243;"L";1;0;NA;"L";"black";"red";"parity";4;0;"MacOs";"Chrome";"1440x697";1;1;1;0;"27";"female";"I've studied at least one of these disciplines (school or university)";"Bachelor degree";"right-handed";"";"Germany"
"PJ6";"BRAC2_vertAA_1st300";3;49;1336,46999999485;"A";1;0;NA;"A";"black";"red";"magnit";6;0;"MacOs";"Chrome";"1440x697";1;1;0;0;"27";"female";"I've studied at least one of these disciplines (school or university)";"Bachelor degree";"right-handed";"";"Germany"
"PJ6";"BRAC2_vertAA_1st300";3;50;813,965000001015;"L";1;0;NA;"L";"black";"blue";"parity";8;0;"MacOs";"Chrome";"1440x697";1;1;1;0;"27";"female";"I've studied at least one of these disciplines (school or university)";"Bachelor degree";"right-handed";"";"Germany"
"PJ6";"BRAC2_vertAA_1st300";3;51;675,474999996368;"A";1;0;NA;"A";"black";"blue";"magnit";7;0;"MacOs";"Chrome";"1440x697";1;1;0;0;"27";"female";"I've studied at least one of these disciplines (school or university)";"Bachelor degree";"right-handed";"";"Germany"
"PJ6";"BRAC2_vertAA_1st300";3;52;755,375000000698;"L";1;0;NA;"L";"black";"blue";"parity";8;0;"MacOs";"Chrome";"1440x697";1;1;0;0;"27";"female";"I've studied at least one of these disciplines (school or university)";"Bachelor degree";"right-handed";"";"Germany"
"PJ6";"BRAC2_vertAA_1st300";3;53;698,044999997364;"L";1;1;NA;"A";"black";"red";"magnit";6;0;"MacOs";"Chrome";"1440x697";1;1;1;0;"27";"female";"I've studied at least one of these disciplines (school or university)";"Bachelor degree";"right-handed";"";"Germany"
"PJ6";"BRAC2_vertAA_1st300";3;54;505,414999999572;"L";1;0;NA;"L";"black";"blue";"magnit";3;0;"MacOs";"Chrome";"1440x697";0;1;1;1;"27";"female";"I've studied at least one of these disciplines (school or university)";"Bachelor degree";"right-handed";"";"Germany"
"PJ6";"BRAC2_vertAA_1st300";3;55;777,364999994636;"L";1;0;NA;"L";"black";"blue";"parity";6;0;"MacOs";"Chrome";"1440x697";1;0;0;0;"27";"female";"I've studied at least one of these disciplines (school or university)";"Bachelor degree";"right-handed";"";"Germany"
"PJ6";"BRAC2_vertAA_1st300";3;56;568,774999999674;"A";1;0;NA;"A";"black";"red";"parity";9;0;"MacOs";"Chrome";"1440x697";0;1;1;0;"27";"female";"I've studied at least one of these disciplines (school or university)";"Bachelor degree";"right-handed";"";"Germany"
"PJ6";"BRAC2_vertAA_1st300";3;57;677,970000004396;"A";1;0;NA;"A";"black";"red";"parity";7;0;"MacOs";"Chrome";"1440x697";0;0;0;0;"27";"female";"I've studied at least one of these disciplines (school or university)";"Bachelor degree";"right-handed";"";"Germany"
"PJ6";"BRAC2_vertAA_1st300";3;58;1402,59499999951;"A";1;0;NA;"A";"black";"blue";"parity";3;0;"MacOs";"Chrome";"1440x697";0;0;1;0;"27";"female";"I've studied at least one of these disciplines (school or university)";"Bachelor degree";"right-handed";"";"Germany"
"PJ6";"BRAC2_vertAA_1st300";3;59;451,220000002766;"A";1;0;NA;"A";"black";"blue";"parity";7;0;"MacOs";"Chrome";"1440x697";0;0;0;0;"27";"female";"I've studied at least one of these disciplines (school or university)";"Bachelor degree";"right-handed";"";"Germany"
"PJ6";"BRAC2_vertAA_1st300";3;60;553,854999998352;"A";1;0;NA;"A";"black";"red";"parity";3;0;"MacOs";"Chrome";"1440x697";0;0;1;0;"27";"female";"I've studied at least one of these disciplines (school or university)";"Bachelor degree";"right-handed";"";"Germany"
"PJ6";"BRAC2_vertAA_1st300";3;61;616,025000002934;"A";1;0;NA;"A";"black";"blue";"magnit";7;0;"MacOs";"Chrome";"1440x697";1;0;1;0;"27";"female";"I've studied at least one of these disciplines (school or university)";"Bachelor degree";"right-handed";"";"Germany"
"PJ6";"BRAC2_vertAA_1st300";3;62;748,594999997178;"L";1;0;NA;"L";"black";"blue";"parity";6;0;"MacOs";"Chrome";"1440x697";1;1;0;0;"27";"female";"I've studied at least one of these disciplines (school or university)";"Bachelor degree";"right-handed";"";"Germany"
"PJ6";"BRAC2_vertAA_1st300";3;63;672,574999996927;"A";1;0;NA;"A";"black";"red";"magnit";8;0;"MacOs";"Chrome";"1440x697";1;1;1;0;"27";"female";"I've studied at least one of these disciplines (school or university)";"Bachelor degree";"right-handed";"";"Germany"
"PJ6";"BRAC2_vertAA_1st300";3;64;717,119999993825;"L";1;0;NA;"L";"black";"blue";"magnit";4;0;"MacOs";"Chrome";"1440x697";0;1;1;0;"27";"female";"I've studied at least one of these disciplines (school or university)";"Bachelor degree";"right-handed";"";"Germany"
"PJ6";"BRAC2_vertAA_1st300";3;65;835,639999997569;"A";1;0;NA;"A";"black";"red";"magnit";9;0;"MacOs";"Chrome";"1440x697";0;1;1;0;"27";"female";"I've studied at least one of these disciplines (school or university)";"Bachelor degree";"right-handed";"";"Germany"
"PJ6";"BRAC2_vertAA_1st300";3;66;711,390000004089;"A";1;0;NA;"A";"black";"blue";"magnit";6;0;"MacOs";"Chrome";"1440x697";0;0;1;0;"27";"female";"I've studied at least one of these disciplines (school or university)";"Bachelor degree";"right-handed";"";"Germany"
"PJ6";"BRAC2_vertAA_1st300";3;67;1028,90499999933;"L";1;0;NA;"L";"black";"blue";"magnit";2;0;"MacOs";"Chrome";"1440x697";0;1;0;0;"27";"female";"I've studied at least one of these disciplines (school or university)";"Bachelor degree";"right-handed";"";"Germany"
"PJ6";"BRAC2_vertAA_1st300";3;68;669,405000000494;"A";1;0;NA;"A";"black";"blue";"parity";9;0;"MacOs";"Chrome";"1440x697";1;1;0;0;"27";"female";"I've studied at least one of these disciplines (school or university)";"Bachelor degree";"right-handed";"";"Germany"
"PJ6";"BRAC2_vertAA_1st300";3;69;718,155000002356;"A";1;0;NA;"A";"black";"blue";"parity";7;0;"MacOs";"Chrome";"1440x697";0;0;0;0;"27";"female";"I've studied at least one of these disciplines (school or university)";"Bachelor degree";"right-handed";"";"Germany"
"PJ6";"BRAC2_vertAA_1st300";3;70;766,040000002366;"A";1;0;NA;"A";"black";"blue";"parity";1;0;"MacOs";"Chrome";"1440x697";0;0;0;0;"27";"female";"I've studied at least one of these disciplines (school or university)";"Bachelor degree";"right-handed";"";"Germany"
"PJ6";"BRAC2_vertAA_1st300";3;71;654,739999998128;"L";1;0;NA;"L";"black";"red";"parity";8;0;"MacOs";"Chrome";"1440x697";0;1;1;0;"27";"female";"I've studied at least one of these disciplines (school or university)";"Bachelor degree";"right-handed";"";"Germany"
"PJ6";"BRAC2_vertAA_1st300";3;72;629,735000002431;"L";1;0;NA;"L";"black";"blue";"magnit";3;0;"MacOs";"Chrome";"1440x697";1;0;1;0;"27";"female";"I've studied at least one of these disciplines (school or university)";"Bachelor degree";"right-handed";"";"Germany"
"PJ6";"BRAC2_vertAA_1st300";3;73;764,549999999814;"A";1;0;NA;"A";"black";"red";"magnit";7;0;"MacOs";"Chrome";"1440x697";0;1;1;0;"27";"female";"I've studied at least one of these disciplines (school or university)";"Bachelor degree";"right-handed";"";"Germany"
"PJ6";"BRAC2_vertAA_1st300";3;74;519,164999997942;"L";1;0;NA;"L";"black";"blue";"parity";4;0;"MacOs";"Chrome";"1440x697";1;1;1;0;"27";"female";"I've studied at least one of these disciplines (school or university)";"Bachelor degree";"right-handed";"";"Germany"
"PJ6";"BRAC2_vertAA_1st300";3;75;466,740000003483;"L";1;0;NA;"L";"black";"blue";"parity";2;0;"MacOs";"Chrome";"1440x697";0;0;0;0;"27";"female";"I've studied at least one of these disciplines (school or university)";"Bachelor degree";"right-handed";"";"Germany"
"PJ6";"BRAC2_vertAA_1st300";3;76;801,630000001751;"A";1;0;NA;"A";"black";"red";"parity";1;0;"MacOs";"Chrome";"1440x697";0;1;1;0;"27";"female";"I've studied at least one of these disciplines (school or university)";"Bachelor degree";"right-handed";"";"Germany"
"PJ6";"BRAC2_vertAA_1st300";3;77;603,134999997448;"L";1;0;NA;"L";"black";"blue";"parity";2;0;"MacOs";"Chrome";"1440x697";0;1;1;0;"27";"female";"I've studied at least one of these disciplines (school or university)";"Bachelor degree";"right-handed";"";"Germany"
"PJ6";"BRAC2_vertAA_1st300";3;78;514,344999996014;"A";1;0;NA;"A";"black";"red";"parity";7;0;"MacOs";"Chrome";"1440x697";0;1;1;0;"27";"female";"I've studied at least one of these disciplines (school or university)";"Bachelor degree";"right-handed";"";"Germany"
"PJ6";"BRAC2_vertAA_1st300";3;79;1639,28499999759;"A";1;0;NA;"A";"black";"blue";"parity";3;0;"MacOs";"Chrome";"1440x697";0;0;1;0;"27";"female";"I've studied at least one of these disciplines (school or university)";"Bachelor degree";"right-handed";"";"Germany"
"PJ6";"BRAC2_vertAA_1st300";3;80;777,53500000108;"L";1;0;NA;"L";"black";"red";"magnit";4;0;"MacOs";"Chrome";"1440x697";1;1;1;0;"27";"female";"I've studied at least one of these disciplines (school or university)";"Bachelor degree";"right-handed";"";"Germany"
"PJ6";"BRAC2_vertAA_1st300";3;81;712,184999996563;"A";1;0;NA;"A";"black";"red";"parity";3;0;"MacOs";"Chrome";"1440x697";1;1;0;0;"27";"female";"I've studied at least one of these disciplines (school or university)";"Bachelor degree";"right-handed";"";"Germany"
"PJ6";"BRAC2_vertAA_1st300";3;82;396,440000004135;"L";1;0;NA;"L";"black";"red";"magnit";4;0;"MacOs";"Chrome";"1440x697";1;1;0;0;"27";"female";"I've studied at least one of these disciplines (school or university)";"Bachelor degree";"right-handed";"";"Germany"
"PJ6";"BRAC2_vertAA_1st300";3;83;517,899999998743;"A";1;0;NA;"A";"black";"blue";"magnit";6;0;"MacOs";"Chrome";"1440x697";0;1;1;0;"27";"female";"I've studied at least one of these disciplines (school or university)";"Bachelor degree";"right-handed";"";"Germany"
"PJ6";"BRAC2_vertAA_1st300";3;84;577,095000000671;"L";1;0;NA;"L";"black";"blue";"magnit";4;0;"MacOs";"Chrome";"1440x697";0;1;0;0;"27";"female";"I've studied at least one of these disciplines (school or university)";"Bachelor degree";"right-handed";"";"Germany"
"PJ6";"BRAC2_vertAA_1st300";3;85;487,264999996172;"A";1;0;NA;"A";"black";"blue";"magnit";8;0;"MacOs";"Chrome";"1440x697";0;1;0;0;"27";"female";"I've studied at least one of these disciplines (school or university)";"Bachelor degree";"right-handed";"";"Germany"
"PJ6";"BRAC2_vertAA_1st300";3;86;603,450000002282;"L";1;0;NA;"L";"black";"blue";"parity";4;0;"MacOs";"Chrome";"1440x697";1;1;0;0;"27";"female";"I've studied at least one of these disciplines (school or university)";"Bachelor degree";"right-handed";"";"Germany"
"PJ6";"BRAC2_vertAA_1st300";3;87;565,894999999786;"L";1;0;NA;"L";"black";"red";"parity";2;0;"MacOs";"Chrome";"1440x697";0;0;1;0;"27";"female";"I've studied at least one of these disciplines (school or university)";"Bachelor degree";"right-handed";"";"Germany"
"PJ6";"BRAC2_vertAA_1st300";3;88;634,58499999973;"A";1;0;NA;"A";"black";"red";"parity";1;0;"MacOs";"Chrome";"1440x697";0;1;0;0;"27";"female";"I've studied at least one of these disciplines (school or university)";"Bachelor degree";"right-handed";"";"Germany"
"PJ6";"BRAC2_vertAA_1st300";3;89;519,130000000587;"A";1;0;NA;"A";"black";"red";"magnit";7;0;"MacOs";"Chrome";"1440x697";1;0;0;0;"27";"female";"I've studied at least one of these disciplines (school or university)";"Bachelor degree";"right-handed";"";"Germany"
"PJ6";"BRAC2_vertAA_1st300";3;90;481,265000002226;"A";1;0;NA;"A";"black";"red";"magnit";8;0;"MacOs";"Chrome";"1440x697";0;0;0;0;"27";"female";"I've studied at least one of these disciplines (school or university)";"Bachelor degree";"right-handed";"";"Germany"
"PJ6";"BRAC2_vertAA_1st300";3;91;666,17499999865;"A";1;0;NA;"A";"black";"blue";"parity";1;0;"MacOs";"Chrome";"1440x697";1;0;1;0;"27";"female";"I've studied at least one of these disciplines (school or university)";"Bachelor degree";"right-handed";"";"Germany"
"PJ6";"BRAC2_vertAA_1st300";3;92;483,940000005532;"L";1;0;NA;"L";"black";"red";"parity";2;0;"MacOs";"Chrome";"1440x697";0;1;1;0;"27";"female";"I've studied at least one of these disciplines (school or university)";"Bachelor degree";"right-handed";"";"Germany"
