"";"pp";"counterbalance";"blockNum";"trialNum";"rt";"Response";"Attempt";"error";"Timed.Out";"ANSWER";"cuecolor";"framecolor";"task";"stimulus";"cocoa";"task_R";"ANSWER_R";"framecolor_R";"error_R"
"76";"MH1";"BRAC2_horiAL_1st300";0;0;1603;"L";1;0;NA;"L";"black";"red";"parity";3;300;99;99;99;99
"80";"MH1";"BRAC2_horiAL_1st300";0;1;740;"L";1;0;NA;"L";"black";"blue";"parity";7;300;0;0;1;0
"84";"MH1";"BRAC2_horiAL_1st300";0;2;867,000000000029;"L";1;0;NA;"L";"black";"red";"magnit";1;300;1;0;1;0
"88";"MH1";"BRAC2_horiAL_1st300";0;3;1367;"L";1;0;NA;"L";"black";"blue";"parity";9;300;1;0;1;0
"92";"MH1";"BRAC2_horiAL_1st300";0;4;762;"L";1;0;NA;"L";"black";"blue";"parity";3;300;0;0;0;0
"96";"MH1";"BRAC2_horiAL_1st300";0;5;1494;"L";1;0;NA;"L";"black";"blue";"magnit";1;300;1;0;0;0
"100";"MH1";"BRAC2_horiAL_1st300";0;6;998;"L";1;0;NA;"L";"black";"red";"parity";9;300;1;0;1;0
"104";"MH1";"BRAC2_horiAL_1st300";0;7;1831;"A";1;0;NA;"A";"black";"blue";"parity";4;300;0;1;1;0
"108";"MH1";"BRAC2_horiAL_1st300";0;8;879,999999999971;"L";1;0;NA;"L";"black";"blue";"magnit";3;300;1;1;0;0
"112";"MH1";"BRAC2_horiAL_1st300";0;9;526;"A";1;0;NA;"A";"black";"blue";"magnit";6;300;0;1;0;0
"116";"MH1";"BRAC2_horiAL_1st300";0;10;781;"L";1;0;NA;"L";"black";"red";"parity";1;300;1;1;1;0
"120";"MH1";"BRAC2_horiAL_1st300";0;11;745;"L";1;0;NA;"L";"black";"blue";"parity";7;300;0;0;1;0
"124";"MH1";"BRAC2_horiAL_1st300";0;12;1075,00000000003;"A";1;0;NA;"A";"black";"red";"magnit";6;300;1;1;1;0
"128";"MH1";"BRAC2_horiAL_1st300";0;13;863,999999999971;"L";1;0;NA;"L";"black";"red";"magnit";1;300;0;1;0;0
"132";"MH1";"BRAC2_horiAL_1st300";0;14;1376;"A";1;1;NA;"L";"black";"red";"parity";9;300;1;0;0;0
"136";"MH1";"BRAC2_horiAL_1st300";0;15;1688;"A";1;0;NA;"A";"black";"blue";"magnit";7;300;1;1;1;1
"140";"MH1";"BRAC2_horiAL_1st300";0;16;1538;"A";1;0;NA;"A";"black";"red";"parity";8;300;1;0;1;0
"144";"MH1";"BRAC2_horiAL_1st300";0;17;839;"A";1;0;NA;"A";"black";"blue";"parity";2;300;0;0;1;0
"148";"MH1";"BRAC2_horiAL_1st300";0;18;1058,00000000003;"A";1;0;NA;"A";"black";"red";"magnit";9;300;1;0;1;0
"152";"MH1";"BRAC2_horiAL_1st300";0;19;713,000000000029;"L";1;0;NA;"L";"black";"blue";"magnit";3;300;0;1;1;0
"156";"MH1";"BRAC2_horiAL_1st300";0;20;966;"A";1;0;NA;"A";"black";"blue";"magnit";6;300;0;1;0;0
"160";"MH1";"BRAC2_horiAL_1st300";0;21;937;"A";1;0;NA;"A";"black";"blue";"magnit";8;300;0;0;0;0
"164";"MH1";"BRAC2_horiAL_1st300";0;22;581,999999999971;"L";1;0;NA;"L";"black";"red";"magnit";4;300;0;1;1;0
"168";"MH1";"BRAC2_horiAL_1st300";0;23;650;"L";1;0;NA;"L";"black";"blue";"parity";1;300;1;0;1;0
"172";"MH1";"BRAC2_horiAL_1st300";0;24;950,999999999942;"A";1;0;NA;"A";"black";"red";"parity";6;300;0;1;1;0
"176";"MH1";"BRAC2_horiAL_1st300";0;25;1164,00000000006;"A";1;0;NA;"A";"black";"blue";"parity";8;300;0;0;1;0
"180";"MH1";"BRAC2_horiAL_1st300";0;26;886;"A";1;0;NA;"A";"black";"blue";"parity";2;300;0;0;0;0
"184";"MH1";"BRAC2_horiAL_1st300";0;27;629;"A";1;0;NA;"A";"black";"red";"magnit";6;300;1;0;1;0
"188";"MH1";"BRAC2_horiAL_1st300";0;28;854;"A";1;0;NA;"A";"black";"blue";"magnit";8;300;0;0;1;0
"192";"MH1";"BRAC2_horiAL_1st300";0;29;1572;"L";1;0;NA;"L";"black";"red";"parity";9;300;1;1;1;0
"196";"MH1";"BRAC2_horiAL_1st300";0;30;1451;"A";1;0;NA;"A";"black";"red";"magnit";8;300;1;1;0;0
"200";"MH1";"BRAC2_horiAL_1st300";0;31;822;"L";1;0;NA;"L";"black";"red";"parity";7;300;1;1;0;0
"204";"MH1";"BRAC2_horiAL_1st300";0;32;904;"A";1;0;NA;"A";"black";"blue";"parity";8;300;0;1;1;0
"208";"MH1";"BRAC2_horiAL_1st300";0;33;1555;"L";1;1;NA;"A";"black";"red";"parity";4;300;0;0;1;0
"212";"MH1";"BRAC2_horiAL_1st300";0;34;1442;"A";1;0;NA;"A";"black";"red";"parity";6;300;0;0;0;1
"216";"MH1";"BRAC2_horiAL_1st300";0;35;807;"A";1;0;NA;"A";"black";"red";"magnit";8;300;1;0;0;0
"220";"MH1";"BRAC2_horiAL_1st300";0;36;1055;"A";1;1;NA;"L";"black";"blue";"parity";9;300;1;1;1;0
"224";"MH1";"BRAC2_horiAL_1st300";0;37;1305;"L";1;0;NA;"L";"black";"blue";"parity";7;300;0;0;0;1
"228";"MH1";"BRAC2_horiAL_1st300";0;38;772;"A";1;0;NA;"A";"black";"red";"magnit";9;300;1;1;1;0
"232";"MH1";"BRAC2_horiAL_1st300";0;39;999;"L";1;0;NA;"L";"black";"blue";"magnit";4;300;0;1;1;0
"236";"MH1";"BRAC2_horiAL_1st300";0;40;785;"L";1;1;NA;"A";"black";"blue";"parity";2;300;1;1;0;0
"240";"MH1";"BRAC2_horiAL_1st300";0;41;1720;"A";1;0;NA;"A";"black";"red";"parity";4;300;0;0;1;1
"244";"MH1";"BRAC2_horiAL_1st300";0;42;818;"L";1;0;NA;"L";"black";"red";"parity";1;300;0;1;0;0
"248";"MH1";"BRAC2_horiAL_1st300";0;43;512;"A";1;0;NA;"A";"black";"blue";"magnit";9;300;1;1;1;0
"252";"MH1";"BRAC2_horiAL_1st300";0;44;1004;"L";1;0;NA;"L";"black";"blue";"parity";3;300;1;1;0;0
"256";"MH1";"BRAC2_horiAL_1st300";0;45;743;"A";1;0;NA;"A";"black";"blue";"magnit";7;300;1;1;0;0
"260";"MH1";"BRAC2_horiAL_1st300";0;46;633;"A";1;0;NA;"A";"black";"blue";"magnit";9;300;0;0;0;0
"264";"MH1";"BRAC2_horiAL_1st300";0;47;1032;"A";1;0;NA;"A";"black";"red";"parity";2;300;1;0;1;0
"268";"MH1";"BRAC2_horiAL_1st300";0;48;455;"A";1;0;NA;"A";"black";"red";"magnit";7;300;1;0;0;0
"272";"MH1";"BRAC2_horiAL_1st300";0;49;744;"L";1;0;NA;"L";"black";"blue";"magnit";3;300;0;1;1;0
"276";"MH1";"BRAC2_horiAL_1st300";0;50;463;"A";1;0;NA;"A";"black";"red";"magnit";8;300;0;1;1;0
"280";"MH1";"BRAC2_horiAL_1st300";0;51;637;"A";1;1;NA;"L";"black";"blue";"magnit";1;300;0;1;1;0
"284";"MH1";"BRAC2_horiAL_1st300";0;52;639,999999999942;"A";1;0;NA;"A";"black";"red";"magnit";6;300;0;1;1;1
"288";"MH1";"BRAC2_horiAL_1st300";0;53;477,999999999942;"L";1;0;NA;"L";"black";"blue";"magnit";1;300;0;1;1;0
"292";"MH1";"BRAC2_horiAL_1st300";0;54;519;"A";1;0;NA;"A";"black";"blue";"magnit";7;300;0;1;0;0
"296";"MH1";"BRAC2_horiAL_1st300";0;55;840;"A";1;0;NA;"A";"black";"blue";"parity";8;300;1;0;0;0
"300";"MH1";"BRAC2_horiAL_1st300";0;56;1166;"A";1;1;NA;"L";"black";"red";"parity";7;300;0;1;1;0
"304";"MH1";"BRAC2_horiAL_1st300";0;57;1089;"L";1;0;NA;"L";"black";"red";"magnit";4;300;1;0;0;1
"308";"MH1";"BRAC2_horiAL_1st300";0;58;515;"A";1;0;NA;"A";"black";"blue";"magnit";8;300;0;1;1;0
"312";"MH1";"BRAC2_horiAL_1st300";0;59;594,000000000058;"L";1;0;NA;"L";"black";"red";"magnit";1;300;0;1;1;0
"316";"MH1";"BRAC2_horiAL_1st300";0;60;830;"A";1;0;NA;"A";"black";"blue";"parity";6;300;1;1;1;0
"320";"MH1";"BRAC2_horiAL_1st300";0;61;610;"L";1;0;NA;"L";"black";"red";"magnit";2;300;1;1;1;0
"324";"MH1";"BRAC2_horiAL_1st300";0;62;562,999999999942;"L";1;0;NA;"L";"black";"blue";"magnit";4;300;0;0;1;0
"328";"MH1";"BRAC2_horiAL_1st300";0;63;1107;"A";1;0;NA;"A";"black";"red";"parity";2;300;1;1;1;0
"332";"MH1";"BRAC2_horiAL_1st300";0;64;1032;"A";1;0;NA;"A";"black";"red";"parity";6;300;0;0;0;0
"336";"MH1";"BRAC2_horiAL_1st300";0;65;601;"A";1;0;NA;"A";"black";"red";"parity";8;300;0;0;0;0
"340";"MH1";"BRAC2_horiAL_1st300";0;66;661;"L";1;0;NA;"L";"black";"red";"parity";1;300;0;1;0;0
"344";"MH1";"BRAC2_horiAL_1st300";0;67;456;"L";1;0;NA;"L";"black";"red";"magnit";2;300;1;0;0;0
"348";"MH1";"BRAC2_horiAL_1st300";0;68;666;"A";1;0;NA;"A";"black";"red";"magnit";9;300;0;1;0;0
"352";"MH1";"BRAC2_horiAL_1st300";0;69;1729;"L";1;0;NA;"L";"black";"blue";"magnit";2;300;0;1;1;0
"356";"MH1";"BRAC2_horiAL_1st300";0;70;1221;"L";1;0;NA;"L";"black";"red";"parity";3;300;1;0;1;0
"360";"MH1";"BRAC2_horiAL_1st300";0;71;991,000000000058;"A";1;0;NA;"A";"black";"red";"magnit";7;300;1;1;0;0
"364";"MH1";"BRAC2_horiAL_1st300";0;72;1352;"L";1;0;NA;"L";"black";"blue";"parity";9;300;1;1;1;0
"368";"MH1";"BRAC2_horiAL_1st300";0;73;1124;"A";1;0;NA;"A";"black";"blue";"parity";4;300;0;1;0;0
"372";"MH1";"BRAC2_horiAL_1st300";0;74;922;"L";1;0;NA;"L";"black";"red";"parity";7;300;0;1;1;0
"376";"MH1";"BRAC2_horiAL_1st300";0;75;709;"A";1;0;NA;"A";"black";"blue";"parity";6;300;0;1;1;0
"380";"MH1";"BRAC2_horiAL_1st300";0;76;463,000000000058;"A";1;0;NA;"A";"black";"blue";"magnit";9;300;1;0;0;0
"384";"MH1";"BRAC2_horiAL_1st300";0;77;1211;"L";1;0;NA;"L";"black";"red";"magnit";4;300;0;1;1;0
"388";"MH1";"BRAC2_horiAL_1st300";0;78;1406;"L";1;0;NA;"L";"black";"red";"parity";3;300;1;0;0;0
"392";"MH1";"BRAC2_horiAL_1st300";0;79;879;"L";1;0;NA;"L";"black";"red";"magnit";2;300;1;0;0;0
"396";"MH1";"BRAC2_horiAL_1st300";0;80;668,000000000058;"L";1;0;NA;"L";"black";"red";"magnit";3;300;0;0;0;0
"400";"MH1";"BRAC2_horiAL_1st300";0;81;1112,00000000006;"A";1;0;NA;"A";"black";"red";"parity";2;300;1;1;0;0
"404";"MH1";"BRAC2_horiAL_1st300";0;82;2184;"L";1;0;NA;"L";"black";"blue";"parity";1;300;0;1;1;0
"408";"MH1";"BRAC2_horiAL_1st300";0;83;592;"A";1;0;NA;"A";"black";"red";"parity";4;300;0;1;1;0
"412";"MH1";"BRAC2_horiAL_1st300";0;84;695,999999999942;"A";1;0;NA;"A";"black";"blue";"parity";6;300;0;0;1;0
"416";"MH1";"BRAC2_horiAL_1st300";0;85;530;"L";1;0;NA;"L";"black";"red";"magnit";3;300;1;1;1;0
"420";"MH1";"BRAC2_horiAL_1st300";0;86;607,999999999942;"A";1;0;NA;"A";"black";"blue";"parity";4;300;1;1;1;0
"424";"MH1";"BRAC2_horiAL_1st300";0;87;519;"L";1;0;NA;"L";"black";"red";"magnit";3;300;1;1;1;0
"428";"MH1";"BRAC2_horiAL_1st300";0;88;1403;"A";1;0;NA;"A";"black";"red";"magnit";7;300;0;1;0;0
"432";"MH1";"BRAC2_horiAL_1st300";0;89;439;"L";1;0;NA;"L";"black";"blue";"magnit";4;300;0;1;1;0
"436";"MH1";"BRAC2_horiAL_1st300";0;90;611,000000000058;"A";1;0;NA;"A";"black";"red";"parity";8;300;1;1;1;0
"440";"MH1";"BRAC2_horiAL_1st300";0;91;1278;"L";1;0;NA;"L";"black";"blue";"magnit";2;300;1;1;1;0
"444";"MH1";"BRAC2_horiAL_1st300";0;92;1055,00000000006;"L";1;0;NA;"L";"black";"blue";"parity";3;300;1;0;0;0
"448";"MH1";"BRAC2_horiAL_1st300";0;93;702;"A";1;0;NA;"A";"black";"blue";"magnit";6;300;1;1;0;0
"452";"MH1";"BRAC2_horiAL_1st300";0;94;505;"L";1;0;NA;"L";"black";"blue";"parity";1;300;1;1;0;0
"456";"MH1";"BRAC2_horiAL_1st300";0;95;620;"L";1;0;NA;"L";"black";"blue";"magnit";2;300;1;0;0;0
"461";"MH1";"BRAC2_horiAL_1st300";1;0;949,999999999942;"L";1;0;NA;"L";"black";"red";"parity";3;0;99;99;99;99
"465";"MH1";"BRAC2_horiAL_1st300";1;1;664;"L";1;0;NA;"L";"black";"red";"parity";9;0;0;0;0;0
"469";"MH1";"BRAC2_horiAL_1st300";1;2;494,000000000058;"L";1;0;NA;"L";"black";"blue";"magnit";2;0;1;0;1;0
"473";"MH1";"BRAC2_horiAL_1st300";1;3;1016;"A";1;0;NA;"A";"black";"red";"parity";8;0;1;1;1;0
"477";"MH1";"BRAC2_horiAL_1st300";1;4;647,000000000058;"L";1;0;NA;"L";"black";"blue";"parity";7;0;0;1;1;0
"481";"MH1";"BRAC2_horiAL_1st300";1;5;461;"L";1;0;NA;"L";"black";"blue";"parity";3;0;0;0;0;0
"485";"MH1";"BRAC2_horiAL_1st300";1;6;799,000000000058;"L";1;0;NA;"L";"black";"red";"magnit";1;0;1;0;1;0
"489";"MH1";"BRAC2_horiAL_1st300";1;7;587;"L";1;0;NA;"L";"black";"blue";"parity";3;0;1;0;1;0
"493";"MH1";"BRAC2_horiAL_1st300";1;8;1532;"L";1;0;NA;"L";"black";"red";"parity";1;0;0;0;1;0
"497";"MH1";"BRAC2_horiAL_1st300";1;9;1113;"A";1;0;NA;"A";"black";"blue";"magnit";6;0;1;1;1;0
"501";"MH1";"BRAC2_horiAL_1st300";1;10;473;"A";1;0;NA;"A";"black";"blue";"parity";4;0;1;0;0;0
"505";"MH1";"BRAC2_horiAL_1st300";1;11;519;"A";1;0;NA;"A";"black";"blue";"magnit";8;0;1;0;0;0
"509";"MH1";"BRAC2_horiAL_1st300";1;12;1465;"L";1;0;NA;"L";"black";"blue";"parity";7;0;1;1;0;0
"513";"MH1";"BRAC2_horiAL_1st300";1;13;381,999999999942;"A";1;0;NA;"A";"black";"blue";"magnit";8;0;1;1;0;0
"517";"MH1";"BRAC2_horiAL_1st300";1;14;1104,00000000006;"L";1;0;NA;"L";"black";"red";"magnit";2;0;0;1;1;0
"521";"MH1";"BRAC2_horiAL_1st300";1;15;663,999999999942;"A";1;0;NA;"A";"black";"red";"magnit";6;0;0;1;0;0
"525";"MH1";"BRAC2_horiAL_1st300";1;16;1510;"L";1;0;NA;"L";"black";"blue";"parity";9;0;1;1;1;0
"529";"MH1";"BRAC2_horiAL_1st300";1;17;2320;"A";1;0;NA;"A";"black";"blue";"magnit";6;0;1;1;0;0
"533";"MH1";"BRAC2_horiAL_1st300";1;18;435;"L";1;0;NA;"L";"black";"red";"magnit";1;0;0;1;1;0
"537";"MH1";"BRAC2_horiAL_1st300";1;19;1053,99999999988;"A";1;0;NA;"A";"black";"red";"parity";4;0;1;1;0;0
"541";"MH1";"BRAC2_horiAL_1st300";1;20;1182;"A";1;0;NA;"A";"black";"blue";"parity";8;0;0;0;1;0
"545";"MH1";"BRAC2_horiAL_1st300";1;21;602;"L";1;0;NA;"L";"black";"blue";"parity";9;0;0;1;0;0
"549";"MH1";"BRAC2_horiAL_1st300";1;22;699;"L";1;0;NA;"L";"black";"blue";"magnit";4;0;1;0;0;0
"553";"MH1";"BRAC2_horiAL_1st300";1;23;869,000000000116;"A";1;0;NA;"A";"black";"blue";"magnit";7;0;0;1;0;0
"557";"MH1";"BRAC2_horiAL_1st300";1;24;601;"L";1;0;NA;"L";"black";"red";"parity";1;0;1;1;1;0
"561";"MH1";"BRAC2_horiAL_1st300";1;25;1067;"L";1;0;NA;"L";"black";"blue";"parity";3;0;0;0;1;0
"565";"MH1";"BRAC2_horiAL_1st300";1;26;591;"L";1;0;NA;"L";"black";"blue";"magnit";4;0;1;0;0;0
"569";"MH1";"BRAC2_horiAL_1st300";1;27;1089;"A";1;0;NA;"A";"black";"red";"magnit";7;0;0;1;1;0
"573";"MH1";"BRAC2_horiAL_1st300";1;28;962;"L";1;0;NA;"L";"black";"red";"magnit";4;0;0;1;0;0
"577";"MH1";"BRAC2_horiAL_1st300";1;29;805;"L";1;0;NA;"L";"black";"red";"parity";3;0;1;0;0;0
"581";"MH1";"BRAC2_horiAL_1st300";1;30;1336;"A";1;0;NA;"A";"black";"blue";"parity";6;0;0;1;1;0
"585";"MH1";"BRAC2_horiAL_1st300";1;31;627;"A";1;0;NA;"A";"black";"red";"magnit";7;0;1;0;1;0
"589";"MH1";"BRAC2_horiAL_1st300";1;32;467;"A";1;0;NA;"A";"black";"blue";"magnit";9;0;0;0;1;0
"593";"MH1";"BRAC2_horiAL_1st300";1;33;1263,99999999988;"L";1;0;NA;"L";"black";"red";"parity";7;0;1;1;1;0
"597";"MH1";"BRAC2_horiAL_1st300";1;34;576;"L";1;0;NA;"L";"black";"blue";"magnit";1;0;1;0;1;0
"601";"MH1";"BRAC2_horiAL_1st300";1;35;1133;"A";1;0;NA;"A";"black";"blue";"magnit";9;0;0;1;0;0
"605";"MH1";"BRAC2_horiAL_1st300";1;36;1584;"L";1;0;NA;"L";"black";"red";"magnit";3;0;0;1;1;0
"609";"MH1";"BRAC2_horiAL_1st300";1;37;818,999999999884;"A";1;0;NA;"A";"black";"red";"magnit";9;0;0;1;0;0
"613";"MH1";"BRAC2_horiAL_1st300";1;38;451;"L";1;0;NA;"L";"black";"red";"magnit";3;0;0;1;0;0
"617";"MH1";"BRAC2_horiAL_1st300";1;39;686;"A";1;0;NA;"A";"black";"blue";"parity";8;0;1;1;1;0
"621";"MH1";"BRAC2_horiAL_1st300";1;40;1108;"L";1;0;NA;"L";"black";"red";"magnit";3;0;1;1;1;0
"625";"MH1";"BRAC2_horiAL_1st300";1;41;610;"L";1;0;NA;"L";"black";"blue";"parity";1;0;1;0;1;0
"629";"MH1";"BRAC2_horiAL_1st300";1;42;1037,99999999988;"A";1;0;NA;"A";"black";"blue";"magnit";7;0;1;1;0;0
"633";"MH1";"BRAC2_horiAL_1st300";1;43;502;"A";1;0;NA;"A";"black";"blue";"magnit";9;0;0;0;0;0
"637";"MH1";"BRAC2_horiAL_1st300";1;44;506;"A";1;0;NA;"A";"black";"red";"magnit";6;0;0;0;1;0
"641";"MH1";"BRAC2_horiAL_1st300";1;45;588;"L";1;0;NA;"L";"black";"red";"parity";3;0;1;1;0;0
"645";"MH1";"BRAC2_horiAL_1st300";1;46;505;"A";1;0;NA;"A";"black";"red";"magnit";6;0;1;1;0;0
"649";"MH1";"BRAC2_horiAL_1st300";1;47;661;"L";1;0;NA;"L";"black";"blue";"magnit";2;0;0;1;1;0
"653";"MH1";"BRAC2_horiAL_1st300";1;48;569;"A";1;1;NA;"L";"black";"red";"parity";9;0;1;0;1;0
"657";"MH1";"BRAC2_horiAL_1st300";1;49;1626;"A";1;0;NA;"A";"black";"red";"magnit";7;0;1;1;0;1
"661";"MH1";"BRAC2_horiAL_1st300";1;50;908;"L";1;0;NA;"L";"black";"red";"magnit";1;0;0;1;0;0
"665";"MH1";"BRAC2_horiAL_1st300";1;51;1262;"A";1;0;NA;"A";"black";"blue";"parity";2;0;1;1;1;0
"669";"MH1";"BRAC2_horiAL_1st300";1;52;554;"L";1;0;NA;"L";"black";"blue";"parity";1;0;0;1;0;0
"673";"MH1";"BRAC2_horiAL_1st300";1;53;565;"A";1;0;NA;"A";"black";"red";"parity";6;0;0;1;1;0
"677";"MH1";"BRAC2_horiAL_1st300";1;54;1417;"A";1;0;NA;"A";"black";"blue";"parity";4;0;0;0;1;0
"681";"MH1";"BRAC2_horiAL_1st300";1;55;1185;"L";1;0;NA;"L";"black";"blue";"magnit";3;0;1;1;0;0
"685";"MH1";"BRAC2_horiAL_1st300";1;56;429;"A";1;0;NA;"A";"black";"red";"magnit";8;0;0;1;1;0
"689";"MH1";"BRAC2_horiAL_1st300";1;57;1134;"L";1;0;NA;"L";"black";"red";"magnit";4;0;0;1;0;0
"693";"MH1";"BRAC2_horiAL_1st300";1;58;941;"L";1;0;NA;"L";"black";"blue";"parity";9;0;1;0;1;0
"697";"MH1";"BRAC2_horiAL_1st300";1;59;949,000000000116;"A";1;0;NA;"A";"black";"blue";"parity";4;0;0;1;0;0
"701";"MH1";"BRAC2_horiAL_1st300";1;60;1636;"L";1;0;NA;"L";"black";"red";"parity";7;0;0;1;1;0
"705";"MH1";"BRAC2_horiAL_1st300";1;61;1861,99999999988;"A";1;0;NA;"A";"black";"blue";"magnit";6;0;1;1;1;0
"709";"MH1";"BRAC2_horiAL_1st300";1;62;1181;"L";1;0;NA;"L";"black";"blue";"parity";1;0;1;1;0;0
"713";"MH1";"BRAC2_horiAL_1st300";1;63;568;"A";1;0;NA;"A";"black";"red";"magnit";8;0;1;1;1;0
"717";"MH1";"BRAC2_horiAL_1st300";1;64;1036;"A";1;0;NA;"A";"black";"red";"parity";4;0;1;0;0;0
"721";"MH1";"BRAC2_horiAL_1st300";1;65;1818;"L";1;0;NA;"L";"black";"blue";"magnit";1;0;1;1;1;0
"725";"MH1";"BRAC2_horiAL_1st300";1;66;2433;"A";1;0;NA;"A";"black";"blue";"magnit";7;0;0;1;0;0
"729";"MH1";"BRAC2_horiAL_1st300";1;67;1460,00000000012;"L";1;0;NA;"L";"black";"blue";"magnit";1;0;0;1;0;0
"733";"MH1";"BRAC2_horiAL_1st300";1;68;1435;"A";1;0;NA;"A";"black";"blue";"magnit";8;0;0;1;0;0
"737";"MH1";"BRAC2_horiAL_1st300";1;69;1877;"L";1;0;NA;"L";"black";"red";"parity";7;0;1;1;1;0
"741";"MH1";"BRAC2_horiAL_1st300";1;70;864;"L";1;0;NA;"L";"black";"red";"magnit";2;0;1;0;0;0
"745";"MH1";"BRAC2_horiAL_1st300";1;71;986;"L";1;0;NA;"L";"black";"blue";"parity";7;0;1;0;1;0
"749";"MH1";"BRAC2_horiAL_1st300";1;72;1368;"L";1;0;NA;"L";"black";"red";"magnit";2;0;1;0;1;0
"753";"MH1";"BRAC2_horiAL_1st300";1;73;1419,00000000012;"L";1;0;NA;"L";"black";"blue";"magnit";3;0;0;0;1;0
"757";"MH1";"BRAC2_horiAL_1st300";1;74;814;"A";1;0;NA;"A";"black";"red";"magnit";9;0;0;1;1;0
"761";"MH1";"BRAC2_horiAL_1st300";1;75;1066;"A";1;0;NA;"A";"black";"red";"parity";4;0;1;0;0;0
"765";"MH1";"BRAC2_horiAL_1st300";1;76;1263;"A";1;0;NA;"A";"black";"blue";"parity";2;0;0;0;1;0
"769";"MH1";"BRAC2_horiAL_1st300";1;77;1641,00000000012;"A";1;0;NA;"A";"black";"red";"parity";8;0;0;0;1;0
"773";"MH1";"BRAC2_horiAL_1st300";1;78;1279;"A";1;0;NA;"A";"black";"red";"parity";2;0;0;0;0;0
"777";"MH1";"BRAC2_horiAL_1st300";1;79;554;"L";1;0;NA;"L";"black";"red";"parity";1;0;0;1;0;0
"781";"MH1";"BRAC2_horiAL_1st300";1;80;2050;"L";1;0;NA;"L";"black";"blue";"magnit";2;0;1;0;1;0
"785";"MH1";"BRAC2_horiAL_1st300";1;81;765,999999999884;"A";1;0;NA;"A";"black";"blue";"parity";8;0;1;1;0;0
"789";"MH1";"BRAC2_horiAL_1st300";1;82;683,999999999884;"A";1;0;NA;"A";"black";"red";"parity";6;0;0;0;1;0
"793";"MH1";"BRAC2_horiAL_1st300";1;83;742;"A";1;0;NA;"A";"black";"red";"parity";2;0;0;0;0;0
"797";"MH1";"BRAC2_horiAL_1st300";1;84;635,000000000116;"A";1;0;NA;"A";"black";"blue";"parity";6;0;0;0;1;0
"801";"MH1";"BRAC2_horiAL_1st300";1;85;664;"A";1;0;NA;"A";"black";"blue";"parity";2;0;0;0;0;0
"805";"MH1";"BRAC2_horiAL_1st300";1;86;1226;"L";1;0;NA;"L";"black";"blue";"magnit";3;0;1;1;0;0
"809";"MH1";"BRAC2_horiAL_1st300";1;87;1252;"A";1;0;NA;"A";"black";"blue";"parity";6;0;1;1;0;0
"813";"MH1";"BRAC2_horiAL_1st300";1;88;1170,00000000012;"L";1;0;NA;"L";"black";"red";"parity";9;0;0;1;1;0
"817";"MH1";"BRAC2_horiAL_1st300";1;89;727,000000000116;"A";1;0;NA;"A";"black";"red";"parity";2;0;0;1;0;0
"821";"MH1";"BRAC2_horiAL_1st300";1;90;554;"L";1;0;NA;"L";"black";"red";"magnit";4;0;1;1;0;0
"825";"MH1";"BRAC2_horiAL_1st300";1;91;551;"A";1;0;NA;"A";"black";"red";"parity";6;0;1;1;0;0
"829";"MH1";"BRAC2_horiAL_1st300";1;92;1612;"A";1;0;NA;"A";"black";"red";"magnit";8;0;1;0;0;0
"833";"MH1";"BRAC2_horiAL_1st300";1;93;1496,99999999988;"A";1;0;NA;"A";"black";"red";"magnit";9;0;0;0;0;0
"837";"MH1";"BRAC2_horiAL_1st300";1;94;491;"L";1;0;NA;"L";"black";"blue";"magnit";4;0;0;1;1;0
"841";"MH1";"BRAC2_horiAL_1st300";1;95;764;"A";1;0;NA;"A";"black";"red";"parity";8;0;1;1;1;0
"846";"MH1";"BRAC2_horiAL_1st300";2;0;1215;"L";1;0;NA;"L";"black";"red";"magnit";1;300;99;99;99;99
"850";"MH1";"BRAC2_horiAL_1st300";2;1;1851;"A";1;0;NA;"A";"black";"blue";"magnit";9;300;0;1;1;0
"854";"MH1";"BRAC2_horiAL_1st300";2;2;980;"L";1;0;NA;"L";"black";"red";"magnit";4;300;0;1;1;0
"858";"MH1";"BRAC2_horiAL_1st300";2;3;1133;"L";1;0;NA;"L";"black";"red";"parity";9;300;1;0;0;0
"862";"MH1";"BRAC2_horiAL_1st300";2;4;613,000000000116;"A";1;0;NA;"A";"black";"blue";"parity";8;300;0;1;1;0
"866";"MH1";"BRAC2_horiAL_1st300";2;5;1303;"A";1;0;NA;"A";"black";"red";"magnit";7;300;1;0;1;0
"870";"MH1";"BRAC2_horiAL_1st300";2;6;574,999999999884;"A";1;0;NA;"A";"black";"blue";"magnit";8;300;0;0;1;0
"874";"MH1";"BRAC2_horiAL_1st300";2;7;1145;"L";1;0;NA;"L";"black";"blue";"magnit";4;300;0;1;0;0
"878";"MH1";"BRAC2_horiAL_1st300";2;8;976;"L";1;0;NA;"L";"black";"blue";"parity";9;300;1;0;0;0
"882";"MH1";"BRAC2_horiAL_1st300";2;9;858;"L";1;0;NA;"L";"black";"blue";"magnit";1;300;1;0;0;0
"886";"MH1";"BRAC2_horiAL_1st300";2;10;516;"A";1;0;NA;"A";"black";"red";"parity";8;300;1;1;1;0
"890";"MH1";"BRAC2_horiAL_1st300";2;11;497,999999999884;"L";1;0;NA;"L";"black";"blue";"magnit";1;300;1;1;1;0
"894";"MH1";"BRAC2_horiAL_1st300";2;12;987;"A";1;0;NA;"A";"black";"red";"magnit";9;300;0;1;1;0
"898";"MH1";"BRAC2_horiAL_1st300";2;13;479;"A";1;0;NA;"A";"black";"blue";"magnit";8;300;0;0;1;0
"902";"MH1";"BRAC2_horiAL_1st300";2;14;1161,99999999988;"L";1;0;NA;"L";"black";"blue";"parity";9;300;1;1;0;0
"906";"MH1";"BRAC2_horiAL_1st300";2;15;501;"A";1;0;NA;"A";"black";"blue";"magnit";7;300;1;1;0;0
"910";"MH1";"BRAC2_horiAL_1st300";2;16;698;"A";1;0;NA;"A";"black";"red";"parity";6;300;1;0;1;0
"914";"MH1";"BRAC2_horiAL_1st300";2;17;723;"L";1;0;NA;"L";"black";"red";"parity";7;300;0;1;0;0
"918";"MH1";"BRAC2_horiAL_1st300";2;18;566;"A";1;0;NA;"A";"black";"blue";"parity";6;300;0;1;1;0
"922";"MH1";"BRAC2_horiAL_1st300";2;19;924;"L";1;0;NA;"L";"black";"red";"magnit";4;300;1;1;1;0
"926";"MH1";"BRAC2_horiAL_1st300";2;20;1460,00000000012;"L";1;0;NA;"L";"black";"blue";"parity";7;300;1;0;1;0
"930";"MH1";"BRAC2_horiAL_1st300";2;21;630;"L";1;0;NA;"L";"black";"blue";"parity";3;300;0;0;0;0
"934";"MH1";"BRAC2_horiAL_1st300";2;22;1187;"L";1;0;NA;"L";"black";"red";"magnit";4;300;1;0;1;0
"938";"MH1";"BRAC2_horiAL_1st300";2;23;588;"A";1;0;NA;"A";"black";"blue";"magnit";7;300;0;1;1;0
"942";"MH1";"BRAC2_horiAL_1st300";2;24;1369;"A";1;0;NA;"A";"black";"red";"magnit";6;300;0;0;1;0
"946";"MH1";"BRAC2_horiAL_1st300";2;25;560;"L";1;0;NA;"L";"black";"blue";"magnit";3;300;0;1;1;0
"950";"MH1";"BRAC2_horiAL_1st300";2;26;574;"L";1;0;NA;"L";"black";"red";"parity";1;300;1;0;1;0
"954";"MH1";"BRAC2_horiAL_1st300";2;27;703;"L";1;0;NA;"L";"black";"blue";"magnit";3;300;1;0;1;0
"958";"MH1";"BRAC2_horiAL_1st300";2;28;415;"A";1;0;NA;"A";"black";"blue";"magnit";7;300;0;1;0;0
"962";"MH1";"BRAC2_horiAL_1st300";2;29;1010,99999999988;"L";1;0;NA;"L";"black";"blue";"parity";1;300;1;1;0;0
"966";"MH1";"BRAC2_horiAL_1st300";2;30;857;"L";1;0;NA;"L";"black";"blue";"parity";3;300;0;0;0;0
"970";"MH1";"BRAC2_horiAL_1st300";2;31;708;"A";1;0;NA;"A";"black";"red";"parity";2;300;0;1;1;0
"974";"MH1";"BRAC2_horiAL_1st300";2;32;758;"L";1;0;NA;"L";"black";"red";"parity";3;300;0;1;0;0
"978";"MH1";"BRAC2_horiAL_1st300";2;33;547;"L";1;0;NA;"L";"black";"red";"parity";1;300;0;0;0;0
"982";"MH1";"BRAC2_horiAL_1st300";2;34;388;"A";1;0;NA;"A";"black";"red";"parity";2;300;0;1;0;0
"986";"MH1";"BRAC2_horiAL_1st300";2;35;640,000000000116;"A";1;0;NA;"A";"black";"red";"parity";8;300;0;0;0;0
"990";"MH1";"BRAC2_horiAL_1st300";2;36;516;"L";1;0;NA;"L";"black";"blue";"parity";1;300;0;1;1;0
"994";"MH1";"BRAC2_horiAL_1st300";2;37;476;"A";1;0;NA;"A";"black";"blue";"magnit";6;300;1;1;0;0
"998";"MH1";"BRAC2_horiAL_1st300";2;38;449;"A";1;0;NA;"A";"black";"blue";"parity";2;300;1;0;0;0
"1002";"MH1";"BRAC2_horiAL_1st300";2;39;1251;"A";1;0;NA;"A";"black";"red";"magnit";6;300;1;0;1;0
"1006";"MH1";"BRAC2_horiAL_1st300";2;40;610;"A";1;1;NA;"L";"black";"blue";"parity";7;300;1;1;1;0
"1010";"MH1";"BRAC2_horiAL_1st300";2;41;1304;"L";1;0;NA;"L";"black";"blue";"magnit";1;300;1;0;0;1
"1014";"MH1";"BRAC2_horiAL_1st300";2;42;790;"L";1;0;NA;"L";"black";"blue";"parity";7;300;1;0;0;0
"1018";"MH1";"BRAC2_horiAL_1st300";2;43;791;"A";1;0;NA;"A";"black";"blue";"parity";2;300;0;1;0;0
"1022";"MH1";"BRAC2_horiAL_1st300";2;44;516,999999999884;"A";1;0;NA;"A";"black";"red";"magnit";9;300;1;0;1;0
"1026";"MH1";"BRAC2_horiAL_1st300";2;45;1351,99999999988;"A";1;0;NA;"A";"black";"red";"parity";6;300;1;0;0;0
"1030";"MH1";"BRAC2_horiAL_1st300";2;46;544,000000000116;"L";1;0;NA;"L";"black";"red";"parity";3;300;0;1;0;0
"1034";"MH1";"BRAC2_horiAL_1st300";2;47;1003;"A";1;0;NA;"A";"black";"red";"magnit";8;300;1;1;0;0
"1038";"MH1";"BRAC2_horiAL_1st300";2;48;893;"L";1;0;NA;"L";"black";"blue";"magnit";4;300;0;1;1;0
"1042";"MH1";"BRAC2_horiAL_1st300";2;49;526;"A";1;0;NA;"A";"black";"red";"magnit";8;300;0;1;1;0
"1046";"MH1";"BRAC2_horiAL_1st300";2;50;602,999999999884;"L";1;0;NA;"L";"black";"blue";"parity";1;300;1;1;1;0
"1050";"MH1";"BRAC2_horiAL_1st300";2;51;795,999999999884;"A";1;0;NA;"A";"black";"red";"magnit";7;300;1;1;1;0
"1054";"MH1";"BRAC2_horiAL_1st300";2;52;515;"L";1;0;NA;"L";"black";"red";"magnit";2;300;0;1;0;0
"1058";"MH1";"BRAC2_horiAL_1st300";2;53;585,999999999884;"A";1;0;NA;"A";"black";"blue";"magnit";6;300;0;1;1;0
"1062";"MH1";"BRAC2_horiAL_1st300";2;54;494;"L";1;0;NA;"L";"black";"blue";"magnit";2;300;0;1;0;0
"1066";"MH1";"BRAC2_horiAL_1st300";2;55;519;"A";1;0;NA;"A";"black";"blue";"parity";8;300;1;1;0;0
"1070";"MH1";"BRAC2_horiAL_1st300";2;56;750;"L";1;0;NA;"L";"black";"blue";"magnit";2;300;1;1;0;0
"1074";"MH1";"BRAC2_horiAL_1st300";2;57;726;"L";1;0;NA;"L";"black";"red";"magnit";1;300;0;0;1;0
"1078";"MH1";"BRAC2_horiAL_1st300";2;58;563;"A";1;0;NA;"A";"black";"blue";"parity";6;300;1;1;1;0
"1082";"MH1";"BRAC2_horiAL_1st300";2;59;578;"A";1;0;NA;"A";"black";"red";"magnit";8;300;1;0;1;0
"1086";"MH1";"BRAC2_horiAL_1st300";2;60;1439;"L";1;0;NA;"L";"black";"blue";"parity";9;300;1;1;1;0
"1090";"MH1";"BRAC2_horiAL_1st300";2;61;455;"L";1;0;NA;"L";"black";"red";"magnit";2;300;1;0;1;0
"1094";"MH1";"BRAC2_horiAL_1st300";2;62;959,000000000116;"A";1;0;NA;"A";"black";"red";"parity";6;300;1;1;0;0
"1098";"MH1";"BRAC2_horiAL_1st300";2;63;556,999999999884;"A";1;0;NA;"A";"black";"red";"parity";8;300;0;0;0;0
"1102";"MH1";"BRAC2_horiAL_1st300";2;64;479,000000000116;"L";1;0;NA;"L";"black";"red";"parity";3;300;0;1;0;0
"1106";"MH1";"BRAC2_horiAL_1st300";2;65;811;"A";1;0;NA;"A";"black";"red";"parity";4;300;0;1;0;0
"1110";"MH1";"BRAC2_horiAL_1st300";2;66;1013;"A";1;0;NA;"A";"black";"blue";"parity";8;300;0;0;1;0
"1114";"MH1";"BRAC2_horiAL_1st300";2;67;586,000000000116;"L";1;0;NA;"L";"black";"red";"parity";7;300;0;1;1;0
"1118";"MH1";"BRAC2_horiAL_1st300";2;68;422;"L";1;0;NA;"L";"black";"blue";"magnit";2;300;1;0;1;0
"1122";"MH1";"BRAC2_horiAL_1st300";2;69;452;"A";1;0;NA;"A";"black";"blue";"magnit";9;300;0;1;0;0
"1126";"MH1";"BRAC2_horiAL_1st300";2;70;458;"L";1;0;NA;"L";"black";"blue";"magnit";3;300;0;1;0;0
"1130";"MH1";"BRAC2_horiAL_1st300";2;71;630;"A";1;0;NA;"A";"black";"red";"magnit";9;300;0;1;1;0
"1134";"MH1";"BRAC2_horiAL_1st300";2;72;540;"L";1;0;NA;"L";"black";"red";"magnit";3;300;0;1;0;0
"1138";"MH1";"BRAC2_horiAL_1st300";2;73;489;"A";1;0;NA;"A";"black";"blue";"magnit";8;300;0;1;1;0
"1142";"MH1";"BRAC2_horiAL_1st300";2;74;760;"L";1;0;NA;"L";"black";"blue";"magnit";4;300;0;1;0;0
"1146";"MH1";"BRAC2_horiAL_1st300";2;75;890,000000000116;"A";1;0;NA;"A";"black";"red";"magnit";6;300;0;1;1;0
"1150";"MH1";"BRAC2_horiAL_1st300";2;76;992;"A";1;0;NA;"A";"black";"blue";"parity";4;300;1;0;1;0
"1154";"MH1";"BRAC2_horiAL_1st300";2;77;620;"L";1;0;NA;"L";"black";"red";"parity";1;300;0;1;1;0
"1158";"MH1";"BRAC2_horiAL_1st300";2;78;413;"A";1;0;NA;"A";"black";"red";"magnit";7;300;1;1;0;0
"1162";"MH1";"BRAC2_horiAL_1st300";2;79;534;"A";1;0;NA;"A";"black";"blue";"parity";6;300;1;0;1;0
"1166";"MH1";"BRAC2_horiAL_1st300";2;80;449;"L";1;0;NA;"L";"black";"red";"magnit";1;300;1;1;1;0
"1170";"MH1";"BRAC2_horiAL_1st300";2;81;632,999999999884;"A";1;0;NA;"A";"black";"blue";"parity";4;300;1;1;1;0
"1174";"MH1";"BRAC2_horiAL_1st300";2;82;1366;"L";1;0;NA;"L";"black";"red";"parity";7;300;0;1;1;0
"1178";"MH1";"BRAC2_horiAL_1st300";2;83;470;"A";1;0;NA;"A";"black";"blue";"magnit";9;300;1;1;1;0
"1182";"MH1";"BRAC2_horiAL_1st300";2;84;546,999999999884;"L";1;0;NA;"L";"black";"red";"magnit";3;300;0;1;1;0
"1186";"MH1";"BRAC2_horiAL_1st300";2;85;728;"A";1;0;NA;"A";"black";"red";"parity";2;300;1;1;0;0
"1190";"MH1";"BRAC2_horiAL_1st300";2;86;472;"L";1;0;NA;"L";"black";"red";"magnit";3;300;1;1;0;0
"1194";"MH1";"BRAC2_horiAL_1st300";2;87;1253;"A";1;0;NA;"A";"black";"blue";"parity";4;300;1;1;1;0
"1198";"MH1";"BRAC2_horiAL_1st300";2;88;872,999999999884;"L";1;0;NA;"L";"black";"red";"parity";9;300;0;1;1;0
"1202";"MH1";"BRAC2_horiAL_1st300";2;89;584;"A";1;0;NA;"A";"black";"red";"parity";4;300;0;1;0;0
"1206";"MH1";"BRAC2_horiAL_1st300";2;90;734,999999999884;"L";1;0;NA;"L";"black";"blue";"parity";3;300;0;1;1;0
"1210";"MH1";"BRAC2_horiAL_1st300";2;91;1007;"L";1;0;NA;"L";"black";"red";"parity";9;300;0;0;1;0
"1214";"MH1";"BRAC2_horiAL_1st300";2;92;785;"L";1;0;NA;"L";"black";"red";"magnit";2;300;1;0;0;0
"1218";"MH1";"BRAC2_horiAL_1st300";2;93;811,999999999884;"A";1;0;NA;"A";"black";"red";"parity";4;300;1;1;0;0
"1222";"MH1";"BRAC2_horiAL_1st300";2;94;1186;"A";1;0;NA;"A";"black";"blue";"magnit";6;300;1;0;1;0
"1226";"MH1";"BRAC2_horiAL_1st300";2;95;852;"A";1;0;NA;"A";"black";"blue";"parity";2;300;1;0;0;0
"1231";"MH1";"BRAC2_horiAL_1st300";3;0;1514,00000000012;"A";1;0;NA;"A";"black";"blue";"parity";6;0;99;99;99;99
"1235";"MH1";"BRAC2_horiAL_1st300";3;1;490;"L";1;0;NA;"L";"black";"blue";"parity";3;0;0;1;0;0
"1239";"MH1";"BRAC2_horiAL_1st300";3;2;1031;"A";1;0;NA;"A";"black";"red";"magnit";6;0;1;1;1;0
"1243";"MH1";"BRAC2_horiAL_1st300";3;3;668;"A";1;0;NA;"A";"black";"red";"parity";8;0;1;0;0;0
"1247";"MH1";"BRAC2_horiAL_1st300";3;4;537;"A";1;0;NA;"A";"black";"blue";"magnit";7;0;1;0;1;0
"1251";"MH1";"BRAC2_horiAL_1st300";3;5;628,000000000233;"L";1;0;NA;"L";"black";"blue";"magnit";2;0;0;1;0;0
"1255";"MH1";"BRAC2_horiAL_1st300";3;6;559;"A";1;0;NA;"A";"black";"blue";"magnit";7;0;0;1;0;0
"1259";"MH1";"BRAC2_horiAL_1st300";3;7;841;"A";1;0;NA;"A";"black";"red";"parity";2;0;1;0;1;0
"1263";"MH1";"BRAC2_horiAL_1st300";3;8;461;"L";1;0;NA;"L";"black";"blue";"magnit";3;0;1;1;1;0
"1267";"MH1";"BRAC2_horiAL_1st300";3;9;656;"L";1;0;NA;"L";"black";"red";"parity";9;0;1;0;1;0
"1271";"MH1";"BRAC2_horiAL_1st300";3;10;784;"L";1;0;NA;"L";"black";"red";"parity";7;0;0;0;0;0
"1275";"MH1";"BRAC2_horiAL_1st300";3;11;504;"A";1;0;NA;"A";"black";"red";"magnit";9;0;1;1;0;0
"1279";"MH1";"BRAC2_horiAL_1st300";3;12;473;"L";1;0;NA;"L";"black";"blue";"parity";7;0;1;1;1;0
"1283";"MH1";"BRAC2_horiAL_1st300";3;13;579;"A";1;0;NA;"A";"black";"red";"parity";6;0;0;1;1;0
"1287";"MH1";"BRAC2_horiAL_1st300";3;14;560;"L";1;0;NA;"L";"black";"blue";"parity";7;0;0;1;1;0
"1291";"MH1";"BRAC2_horiAL_1st300";3;15;577;"L";1;0;NA;"L";"black";"red";"parity";1;0;0;0;1;0
"1295";"MH1";"BRAC2_horiAL_1st300";3;16;611,999999999767;"L";1;0;NA;"L";"black";"red";"parity";3;0;0;0;0;0
"1299";"MH1";"BRAC2_horiAL_1st300";3;17;616;"L";1;0;NA;"L";"black";"red";"magnit";4;0;1;0;0;0
"1303";"MH1";"BRAC2_horiAL_1st300";3;18;613;"L";1;0;NA;"L";"black";"red";"parity";7;0;1;0;0;0
"1307";"MH1";"BRAC2_horiAL_1st300";3;19;812;"L";1;0;NA;"L";"black";"blue";"parity";3;0;0;0;1;0
"1311";"MH1";"BRAC2_horiAL_1st300";3;20;522,999999999767;"L";1;0;NA;"L";"black";"blue";"parity";1;0;0;0;0;0
"1315";"MH1";"BRAC2_horiAL_1st300";3;21;513;"A";1;0;NA;"A";"black";"blue";"parity";2;0;0;1;0;0
"1319";"MH1";"BRAC2_horiAL_1st300";3;22;582;"L";1;0;NA;"L";"black";"blue";"parity";1;0;0;1;0;0
"1323";"MH1";"BRAC2_horiAL_1st300";3;23;533;"A";1;0;NA;"A";"black";"red";"parity";2;0;0;1;1;0
"1327";"MH1";"BRAC2_horiAL_1st300";3;24;528,000000000233;"L";1;0;NA;"L";"black";"red";"parity";1;0;0;1;0;0
"1331";"MH1";"BRAC2_horiAL_1st300";3;25;613;"L";1;0;NA;"L";"black";"red";"magnit";4;0;1;0;0;0
"1335";"MH1";"BRAC2_horiAL_1st300";3;26;488;"L";1;0;NA;"L";"black";"blue";"magnit";1;0;0;0;1;0
"1339";"MH1";"BRAC2_horiAL_1st300";3;27;538;"L";1;0;NA;"L";"black";"red";"magnit";2;0;0;0;1;0
"1343";"MH1";"BRAC2_horiAL_1st300";3;28;409;"A";1;0;NA;"A";"black";"red";"magnit";7;0;0;1;0;0
"1347";"MH1";"BRAC2_horiAL_1st300";3;29;693;"L";1;0;NA;"L";"black";"red";"magnit";2;0;0;1;0;0
"1351";"MH1";"BRAC2_horiAL_1st300";3;30;648;"A";1;0;NA;"A";"black";"red";"magnit";6;0;0;1;0;0
"1355";"MH1";"BRAC2_horiAL_1st300";3;31;646;"L";1;0;NA;"L";"black";"blue";"magnit";4;0;0;1;1;0
"1359";"MH1";"BRAC2_horiAL_1st300";3;32;813;"A";1;0;NA;"A";"black";"blue";"magnit";9;0;0;1;0;0
"1363";"MH1";"BRAC2_horiAL_1st300";3;33;798;"A";1;0;NA;"A";"black";"blue";"parity";2;0;1;0;0;0
"1367";"MH1";"BRAC2_horiAL_1st300";3;34;1082,00000000023;"L";1;0;NA;"L";"black";"blue";"magnit";4;0;1;1;0;0
"1371";"MH1";"BRAC2_horiAL_1st300";3;35;1519;"A";1;0;NA;"A";"black";"red";"parity";8;0;1;1;1;0
"1375";"MH1";"BRAC2_horiAL_1st300";3;36;640;"L";1;0;NA;"L";"black";"blue";"parity";1;0;0;1;1;0
"1379";"MH1";"BRAC2_horiAL_1st300";3;37;784;"A";1;0;NA;"A";"black";"blue";"magnit";6;0;1;1;0;0
"1383";"MH1";"BRAC2_horiAL_1st300";3;38;396;"L";1;0;NA;"L";"black";"blue";"magnit";3;0;0;1;0;0
"1387";"MH1";"BRAC2_horiAL_1st300";3;39;694;"A";1;0;NA;"A";"black";"blue";"parity";6;0;1;1;0;0
"1391";"MH1";"BRAC2_horiAL_1st300";3;40;816;"A";1;0;NA;"A";"black";"red";"magnit";9;0;1;0;1;0
"1395";"MH1";"BRAC2_horiAL_1st300";3;41;455;"A";1;0;NA;"A";"black";"red";"magnit";8;0;0;0;0;0
"1399";"MH1";"BRAC2_horiAL_1st300";3;42;557;"A";1;0;NA;"A";"black";"red";"parity";6;0;1;0;0;0
"1403";"MH1";"BRAC2_horiAL_1st300";3;43;546;"A";1;0;NA;"A";"black";"blue";"magnit";9;0;1;0;1;0
"1407";"MH1";"BRAC2_horiAL_1st300";3;44;682;"A";1;0;NA;"A";"black";"blue";"parity";8;0;1;0;0;0
"1411";"MH1";"BRAC2_horiAL_1st300";3;45;450;"L";1;0;NA;"L";"black";"red";"magnit";4;0;1;1;1;0
"1415";"MH1";"BRAC2_horiAL_1st300";3;46;500;"A";1;0;NA;"A";"black";"blue";"magnit";8;0;0;1;1;0
"1419";"MH1";"BRAC2_horiAL_1st300";3;47;461;"A";1;0;NA;"A";"black";"red";"magnit";7;0;0;0;1;0
"1423";"MH1";"BRAC2_horiAL_1st300";3;48;467;"L";1;0;NA;"L";"black";"blue";"magnit";3;0;0;1;1;0
"1427";"MH1";"BRAC2_horiAL_1st300";3;49;436;"L";1;0;NA;"L";"black";"red";"parity";9;0;1;0;1;0
"1431";"MH1";"BRAC2_horiAL_1st300";3;50;500;"L";1;0;NA;"L";"black";"red";"magnit";3;0;1;0;0;0
"1435";"MH1";"BRAC2_horiAL_1st300";3;51;614;"L";1;1;NA;"A";"black";"blue";"parity";4;0;1;1;1;0
"1439";"MH1";"BRAC2_horiAL_1st300";3;52;639;"A";1;0;NA;"A";"black";"red";"magnit";6;0;1;0;1;1
"1443";"MH1";"BRAC2_horiAL_1st300";3;53;1259,00000000023;"A";1;0;NA;"A";"black";"blue";"parity";2;0;1;0;1;0
"1447";"MH1";"BRAC2_horiAL_1st300";3;54;605;"A";1;0;NA;"A";"black";"blue";"magnit";6;0;1;0;0;0
"1451";"MH1";"BRAC2_horiAL_1st300";3;55;1016;"A";1;0;NA;"A";"black";"blue";"parity";4;0;1;0;0;0
"1455";"MH1";"BRAC2_horiAL_1st300";3;56;1002;"L";1;0;NA;"L";"black";"blue";"parity";9;0;0;1;0;0
"1459";"MH1";"BRAC2_horiAL_1st300";3;57;553,000000000233;"L";1;0;NA;"L";"black";"red";"magnit";1;0;1;0;1;0
"1463";"MH1";"BRAC2_horiAL_1st300";3;58;431;"A";1;0;NA;"A";"black";"red";"magnit";8;0;0;1;0;0
"1467";"MH1";"BRAC2_horiAL_1st300";3;59;572;"A";1;0;NA;"A";"black";"red";"parity";6;0;1;0;0;0
"1471";"MH1";"BRAC2_horiAL_1st300";3;60;702;"L";1;0;NA;"L";"black";"blue";"parity";9;0;0;1;1;0
"1475";"MH1";"BRAC2_horiAL_1st300";3;61;481;"A";1;0;NA;"A";"black";"blue";"parity";8;0;0;1;0;0
"1479";"MH1";"BRAC2_horiAL_1st300";3;62;600;"L";1;0;NA;"L";"black";"blue";"parity";9;0;0;1;0;0
"1483";"MH1";"BRAC2_horiAL_1st300";3;63;655,000000000233;"L";1;0;NA;"L";"black";"red";"parity";3;0;0;0;1;0
"1487";"MH1";"BRAC2_horiAL_1st300";3;64;450;"L";1;0;NA;"L";"black";"blue";"magnit";4;0;1;0;1;0
"1491";"MH1";"BRAC2_horiAL_1st300";3;65;553,000000000233;"A";1;0;NA;"A";"black";"blue";"magnit";6;0;0;1;0;0
"1495";"MH1";"BRAC2_horiAL_1st300";3;66;574,999999999767;"L";1;0;NA;"L";"black";"red";"parity";9;0;1;1;1;0
"1499";"MH1";"BRAC2_horiAL_1st300";3;67;506;"A";1;0;NA;"A";"black";"red";"magnit";8;0;1;1;0;0
"1503";"MH1";"BRAC2_horiAL_1st300";3;68;1188;"A";1;0;NA;"A";"black";"red";"parity";4;0;1;0;0;0
"1507";"MH1";"BRAC2_horiAL_1st300";3;69;590;"L";1;0;NA;"L";"black";"red";"magnit";1;0;1;1;0;0
"1511";"MH1";"BRAC2_horiAL_1st300";3;70;1152;"A";1;0;NA;"A";"black";"red";"parity";4;0;1;1;0;0
"1515";"MH1";"BRAC2_horiAL_1st300";3;71;490;"A";1;0;NA;"A";"black";"blue";"magnit";8;0;1;0;1;0
"1519";"MH1";"BRAC2_horiAL_1st300";3;72;848,000000000233;"A";1;0;NA;"A";"black";"red";"magnit";9;0;0;0;1;0
"1523";"MH1";"BRAC2_horiAL_1st300";3;73;982;"A";1;1;NA;"L";"black";"red";"magnit";3;0;0;1;0;0
"1527";"MH1";"BRAC2_horiAL_1st300";3;74;497,999999999767;"A";1;0;NA;"A";"black";"blue";"magnit";8;0;0;1;1;1
"1531";"MH1";"BRAC2_horiAL_1st300";3;75;1005,99999999977;"L";1;0;NA;"L";"black";"red";"parity";1;0;1;1;1;0
"1535";"MH1";"BRAC2_horiAL_1st300";3;76;553,999999999767;"L";1;0;NA;"L";"black";"blue";"parity";3;0;0;0;1;0
"1539";"MH1";"BRAC2_horiAL_1st300";3;77;444;"L";1;0;NA;"L";"black";"blue";"magnit";1;0;1;0;0;0
"1543";"MH1";"BRAC2_horiAL_1st300";3;78;1025;"A";1;0;NA;"A";"black";"red";"parity";8;0;1;1;1;0
"1547";"MH1";"BRAC2_horiAL_1st300";3;79;871;"A";1;0;NA;"A";"black";"blue";"magnit";9;0;1;0;1;0
"1551";"MH1";"BRAC2_horiAL_1st300";3;80;1063,00000000023;"L";1;0;NA;"L";"black";"red";"magnit";1;0;0;1;1;0
"1555";"MH1";"BRAC2_horiAL_1st300";3;81;669;"A";1;0;NA;"A";"black";"blue";"parity";4;0;1;1;1;0
"1559";"MH1";"BRAC2_horiAL_1st300";3;82;461;"L";1;0;NA;"L";"black";"red";"parity";3;0;0;1;1;0
"1563";"MH1";"BRAC2_horiAL_1st300";3;83;512;"A";1;0;NA;"A";"black";"blue";"parity";6;0;0;1;1;0
"1567";"MH1";"BRAC2_horiAL_1st300";3;84;471;"L";1;0;NA;"L";"black";"blue";"magnit";2;0;1;1;0;0
"1571";"MH1";"BRAC2_horiAL_1st300";3;85;689,000000000233;"A";1;0;NA;"A";"black";"red";"magnit";7;0;0;1;1;0
"1575";"MH1";"BRAC2_horiAL_1st300";3;86;763;"L";1;0;NA;"L";"black";"red";"magnit";3;0;0;1;0;0
"1579";"MH1";"BRAC2_horiAL_1st300";3;87;503;"A";1;0;NA;"A";"black";"blue";"magnit";7;0;0;1;1;0
"1583";"MH1";"BRAC2_horiAL_1st300";3;88;482;"A";1;0;NA;"A";"black";"red";"parity";2;0;1;0;1;0
"1587";"MH1";"BRAC2_horiAL_1st300";3;89;901;"L";1;0;NA;"L";"black";"red";"parity";7;0;0;1;0;0
"1591";"MH1";"BRAC2_horiAL_1st300";3;90;685;"A";1;0;NA;"A";"black";"red";"parity";4;0;0;1;0;0
"1595";"MH1";"BRAC2_horiAL_1st300";3;91;1813;"L";1;0;NA;"L";"black";"red";"magnit";2;0;1;1;0;0
"1599";"MH1";"BRAC2_horiAL_1st300";3;92;1102;"L";1;0;NA;"L";"black";"blue";"magnit";1;0;0;0;1;0
"1603";"MH1";"BRAC2_horiAL_1st300";3;93;1016;"L";1;0;NA;"L";"black";"blue";"parity";7;0;1;0;0;0
"1607";"MH1";"BRAC2_horiAL_1st300";3;94;593;"A";1;0;NA;"A";"black";"blue";"parity";8;0;0;1;0;0
"1611";"MH1";"BRAC2_horiAL_1st300";3;95;583;"L";1;0;NA;"L";"black";"blue";"magnit";2;0;1;1;0;0
"1689";"SF9";"BRAC2_horiLL_1st300";0;0;427;"A";1;1;NA;"L";"black";"blue";"magnit";8;300;99;99;99;99
"1693";"SF9";"BRAC2_horiLL_1st300";0;1;527,000000000029;"A";1;0;NA;"A";"black";"red";"magnit";1;300;0;1;1;1
"1697";"SF9";"BRAC2_horiLL_1st300";0;2;579;"L";1;0;NA;"L";"black";"red";"parity";9;300;1;1;0;0
"1701";"SF9";"BRAC2_horiLL_1st300";0;3;497;"L";1;0;NA;"L";"black";"red";"magnit";6;300;1;0;0;0
"1705";"SF9";"BRAC2_horiLL_1st300";0;4;497;"A";1;0;NA;"A";"black";"blue";"parity";2;300;1;1;1;0
"1709";"SF9";"BRAC2_horiLL_1st300";0;5;445;"A";1;0;NA;"A";"black";"red";"magnit";4;300;1;0;1;0
"1713";"SF9";"BRAC2_horiLL_1st300";0;6;449;"L";1;0;NA;"L";"black";"blue";"parity";7;300;1;1;1;0
"1717";"SF9";"BRAC2_horiLL_1st300";0;7;513;"L";1;0;NA;"L";"black";"red";"parity";9;300;0;0;1;0
"1721";"SF9";"BRAC2_horiLL_1st300";0;8;488;"A";1;0;NA;"A";"black";"red";"parity";2;300;0;1;0;0
"1725";"SF9";"BRAC2_horiLL_1st300";0;9;478,000000000029;"L";1;0;NA;"L";"black";"blue";"parity";9;300;0;1;1;0
"1729";"SF9";"BRAC2_horiLL_1st300";0;10;468;"L";1;1;NA;"A";"black";"red";"magnit";4;300;1;1;1;0
"1733";"SF9";"BRAC2_horiLL_1st300";0;11;512,999999999971;"L";1;0;NA;"L";"black";"blue";"parity";9;300;1;1;1;1
"1737";"SF9";"BRAC2_horiLL_1st300";0;12;538,000000000029;"A";1;0;NA;"A";"black";"blue";"magnit";4;300;1;1;0;0
"1741";"SF9";"BRAC2_horiLL_1st300";0;13;544,999999999971;"L";1;0;NA;"L";"black";"red";"magnit";7;300;0;1;1;0
"1745";"SF9";"BRAC2_horiLL_1st300";0;14;502;"A";1;0;NA;"A";"black";"blue";"parity";2;300;1;1;1;0
"1749";"SF9";"BRAC2_horiLL_1st300";0;15;406;"L";1;1;NA;"A";"black";"blue";"parity";4;300;0;0;0;0
"1753";"SF9";"BRAC2_horiLL_1st300";0;16;595;"A";1;0;NA;"A";"black";"red";"magnit";2;300;1;0;1;1
"1757";"SF9";"BRAC2_horiLL_1st300";0;17;507;"L";1;0;NA;"L";"black";"blue";"parity";3;300;1;1;1;0
"1761";"SF9";"BRAC2_horiLL_1st300";0;18;672,999999999942;"L";1;0;NA;"L";"black";"red";"magnit";8;300;1;0;1;0
"1765";"SF9";"BRAC2_horiLL_1st300";0;19;462;"A";1;0;NA;"A";"black";"red";"magnit";2;300;0;1;0;0
"1769";"SF9";"BRAC2_horiLL_1st300";0;20;377,999999999942;"L";1;0;NA;"L";"black";"blue";"parity";7;300;1;1;1;0
"1773";"SF9";"BRAC2_horiLL_1st300";0;21;481;"A";1;1;NA;"L";"black";"blue";"parity";1;300;0;0;0;0
"1777";"SF9";"BRAC2_horiLL_1st300";0;22;538;"A";1;1;NA;"L";"black";"blue";"magnit";6;300;1;0;0;1
"1781";"SF9";"BRAC2_horiLL_1st300";0;23;487;"L";1;1;NA;"A";"black";"red";"parity";8;300;1;1;1;1
"1785";"SF9";"BRAC2_horiLL_1st300";0;24;534;"A";1;0;NA;"A";"black";"blue";"magnit";1;300;1;0;1;1
"1789";"SF9";"BRAC2_horiLL_1st300";0;25;453;"L";1;0;NA;"L";"black";"blue";"parity";3;300;1;1;0;0
"1793";"SF9";"BRAC2_horiLL_1st300";0;26;489;"L";1;0;NA;"L";"black";"red";"parity";1;300;0;0;1;0
"1797";"SF9";"BRAC2_horiLL_1st300";0;27;568;"L";1;0;NA;"L";"black";"blue";"magnit";6;300;1;0;1;0
"1801";"SF9";"BRAC2_horiLL_1st300";0;28;476;"A";1;0;NA;"A";"black";"blue";"magnit";2;300;0;1;0;0
"1805";"SF9";"BRAC2_horiLL_1st300";0;29;506;"L";1;0;NA;"L";"black";"blue";"magnit";9;300;0;1;0;0
"1809";"SF9";"BRAC2_horiLL_1st300";0;30;585;"L";1;0;NA;"L";"black";"red";"magnit";6;300;0;0;1;0
"1813";"SF9";"BRAC2_horiLL_1st300";0;31;502;"L";1;0;NA;"L";"black";"blue";"magnit";7;300;0;0;1;0
"1817";"SF9";"BRAC2_horiLL_1st300";0;32;678;"A";1;1;NA;"L";"black";"blue";"parity";1;300;1;0;0;0
"1821";"SF9";"BRAC2_horiLL_1st300";0;33;548;"A";1;0;NA;"A";"black";"red";"parity";6;300;0;1;1;1
"1825";"SF9";"BRAC2_horiLL_1st300";0;34;467,000000000058;"L";1;0;NA;"L";"black";"blue";"magnit";9;300;1;1;1;0
"1829";"SF9";"BRAC2_horiLL_1st300";0;35;477,999999999942;"L";1;0;NA;"L";"black";"red";"magnit";7;300;0;0;1;0
"1833";"SF9";"BRAC2_horiLL_1st300";0;36;695;"A";1;0;NA;"A";"black";"red";"magnit";2;300;0;1;0;0
"1837";"SF9";"BRAC2_horiLL_1st300";0;37;446;"L";1;0;NA;"L";"black";"red";"parity";3;300;1;1;0;0
"1841";"SF9";"BRAC2_horiLL_1st300";0;38;495;"A";1;0;NA;"A";"black";"blue";"magnit";1;300;1;1;1;0
"1845";"SF9";"BRAC2_horiLL_1st300";0;39;492;"A";1;0;NA;"A";"black";"red";"magnit";3;300;0;0;1;0
"1849";"SF9";"BRAC2_horiLL_1st300";0;40;471;"A";1;1;NA;"L";"black";"red";"magnit";8;300;0;1;0;0
"1853";"SF9";"BRAC2_horiLL_1st300";0;41;494;"L";1;0;NA;"L";"black";"red";"magnit";7;300;0;0;0;1
"1857";"SF9";"BRAC2_horiLL_1st300";0;42;518;"A";1;0;NA;"A";"black";"blue";"parity";2;300;1;1;1;0
"1861";"SF9";"BRAC2_horiLL_1st300";0;43;514;"L";1;0;NA;"L";"black";"red";"magnit";9;300;1;1;1;0
"1865";"SF9";"BRAC2_horiLL_1st300";0;44;634;"L";1;0;NA;"L";"black";"red";"magnit";6;300;0;0;0;0
"1869";"SF9";"BRAC2_horiLL_1st300";0;45;538;"L";1;0;NA;"L";"black";"red";"parity";3;300;1;0;0;0
"1873";"SF9";"BRAC2_horiLL_1st300";0;46;490;"A";1;0;NA;"A";"black";"blue";"magnit";2;300;1;1;1;0
"1877";"SF9";"BRAC2_horiLL_1st300";0;47;427;"L";1;0;NA;"L";"black";"red";"parity";7;300;1;1;1;0
"1881";"SF9";"BRAC2_horiLL_1st300";0;48;443;"A";1;0;NA;"A";"black";"blue";"magnit";1;300;1;1;1;0
"1885";"SF9";"BRAC2_horiLL_1st300";0;49;534;"A";1;0;NA;"A";"black";"blue";"magnit";3;300;0;0;0;0
"1889";"SF9";"BRAC2_horiLL_1st300";0;50;228;"L";1;1;NA;"A";"black";"red";"parity";2;300;1;0;1;0
"1893";"SF9";"BRAC2_horiLL_1st300";0;51;566,999999999942;"A";1;0;NA;"A";"black";"blue";"magnit";4;300;1;0;1;1
"1897";"SF9";"BRAC2_horiLL_1st300";0;52;577;"L";1;0;NA;"L";"black";"blue";"magnit";7;300;0;1;0;0
"1901";"SF9";"BRAC2_horiLL_1st300";0;53;737;"L";1;1;NA;"A";"black";"blue";"parity";6;300;1;1;0;0
"1905";"SF9";"BRAC2_horiLL_1st300";0;54;623;"A";1;0;NA;"A";"black";"blue";"magnit";2;300;1;0;0;1
"1909";"SF9";"BRAC2_horiLL_1st300";0;55;686;"A";1;0;NA;"A";"black";"red";"magnit";1;300;0;0;1;0
"1913";"SF9";"BRAC2_horiLL_1st300";0;56;338;"A";1;0;NA;"A";"black";"blue";"parity";4;300;1;0;1;0
"1917";"SF9";"BRAC2_horiLL_1st300";0;57;559;"A";1;1;NA;"L";"black";"blue";"parity";1;300;0;1;0;0
"1921";"SF9";"BRAC2_horiLL_1st300";0;58;574;"L";1;0;NA;"L";"black";"red";"parity";3;300;0;0;1;1
"1925";"SF9";"BRAC2_horiLL_1st300";0;59;674;"A";1;0;NA;"A";"black";"red";"parity";6;300;0;1;0;0
"1929";"SF9";"BRAC2_horiLL_1st300";0;60;556;"L";1;0;NA;"L";"black";"red";"parity";7;300;0;1;0;0
"1933";"SF9";"BRAC2_horiLL_1st300";0;61;717;"L";1;0;NA;"L";"black";"red";"magnit";8;300;1;0;0;0
"1937";"SF9";"BRAC2_horiLL_1st300";0;62;742;"A";1;0;NA;"A";"black";"red";"magnit";3;300;0;1;0;0
"1941";"SF9";"BRAC2_horiLL_1st300";0;63;707,999999999942;"L";1;1;NA;"A";"black";"red";"parity";6;300;1;0;0;0
"1945";"SF9";"BRAC2_horiLL_1st300";0;64;788;"A";1;0;NA;"A";"black";"blue";"parity";8;300;0;0;1;1
"1949";"SF9";"BRAC2_horiLL_1st300";0;65;724;"A";1;0;NA;"A";"black";"red";"magnit";3;300;1;0;1;0
"1953";"SF9";"BRAC2_horiLL_1st300";0;66;1020;"L";1;0;NA;"L";"black";"blue";"parity";9;300;1;1;1;0
"1957";"SF9";"BRAC2_horiLL_1st300";0;67;779;"A";1;0;NA;"A";"black";"red";"parity";8;300;0;1;1;0
"1961";"SF9";"BRAC2_horiLL_1st300";0;68;675,000000000058;"A";1;0;NA;"A";"black";"blue";"parity";4;300;0;0;1;0
"1965";"SF9";"BRAC2_horiLL_1st300";0;69;611;"L";1;0;NA;"L";"black";"blue";"magnit";8;300;1;1;0;0
"1969";"SF9";"BRAC2_horiLL_1st300";0;70;779;"L";1;0;NA;"L";"black";"blue";"parity";7;300;1;0;0;0
"1973";"SF9";"BRAC2_horiLL_1st300";0;71;589;"A";1;0;NA;"A";"black";"red";"parity";4;300;0;1;1;0
"1977";"SF9";"BRAC2_horiLL_1st300";0;72;656;"A";1;0;NA;"A";"black";"red";"parity";2;300;0;0;0;0
"1981";"SF9";"BRAC2_horiLL_1st300";0;73;509;"L";1;0;NA;"L";"black";"blue";"magnit";9;300;1;1;1;0
"1985";"SF9";"BRAC2_horiLL_1st300";0;74;496;"A";1;0;NA;"A";"black";"blue";"magnit";3;300;0;1;0;0
"1989";"SF9";"BRAC2_horiLL_1st300";0;75;690,999999999942;"A";1;0;NA;"A";"black";"blue";"parity";6;300;1;0;0;0
"1993";"SF9";"BRAC2_horiLL_1st300";0;76;570;"L";1;1;NA;"A";"black";"red";"parity";8;300;0;0;1;0
"1997";"SF9";"BRAC2_horiLL_1st300";0;77;761,000000000058;"L";1;0;NA;"L";"black";"blue";"magnit";6;300;1;1;1;1
"2001";"SF9";"BRAC2_horiLL_1st300";0;78;432,999999999942;"A";1;0;NA;"A";"black";"red";"magnit";1;300;0;1;1;0
"2005";"SF9";"BRAC2_horiLL_1st300";0;79;947;"L";1;0;NA;"L";"black";"red";"parity";7;300;1;1;0;0
"2009";"SF9";"BRAC2_horiLL_1st300";0;80;628;"A";1;0;NA;"A";"black";"blue";"parity";8;300;0;1;1;0
"2013";"SF9";"BRAC2_horiLL_1st300";0;81;815;"L";1;0;NA;"L";"black";"red";"parity";1;300;0;1;1;0
"2017";"SF9";"BRAC2_horiLL_1st300";0;82;705;"A";1;0;NA;"A";"black";"blue";"parity";6;300;0;1;1;0
"2021";"SF9";"BRAC2_horiLL_1st300";0;83;499;"L";1;0;NA;"L";"black";"red";"parity";1;300;0;1;1;0
"2025";"SF9";"BRAC2_horiLL_1st300";0;84;662,000000000058;"L";1;0;NA;"L";"black";"red";"magnit";9;300;1;0;0;0
"2029";"SF9";"BRAC2_horiLL_1st300";0;85;858,999999999942;"L";1;1;NA;"A";"black";"blue";"magnit";3;300;0;1;1;0
"2033";"SF9";"BRAC2_horiLL_1st300";0;86;477;"L";1;0;NA;"L";"black";"blue";"magnit";8;300;0;1;0;1
"2037";"SF9";"BRAC2_horiLL_1st300";0;87;888;"A";1;0;NA;"A";"black";"red";"magnit";4;300;0;1;1;0
"2041";"SF9";"BRAC2_horiLL_1st300";0;88;607;"L";1;0;NA;"L";"black";"blue";"magnit";7;300;0;1;1;0
"2045";"SF9";"BRAC2_horiLL_1st300";0;89;769,000000000058;"A";1;0;NA;"A";"black";"red";"parity";4;300;1;1;1;0
"2049";"SF9";"BRAC2_horiLL_1st300";0;90;495;"L";1;1;NA;"A";"black";"blue";"parity";8;300;0;0;1;0
"2053";"SF9";"BRAC2_horiLL_1st300";0;91;690;"A";1;0;NA;"A";"black";"blue";"magnit";4;300;1;0;0;1
"2057";"SF9";"BRAC2_horiLL_1st300";0;92;776;"L";1;0;NA;"L";"black";"red";"parity";9;300;1;1;1;0
"2061";"SF9";"BRAC2_horiLL_1st300";0;93;774;"L";1;0;NA;"L";"black";"blue";"parity";3;300;0;0;1;0
"2065";"SF9";"BRAC2_horiLL_1st300";0;94;636;"A";1;0;NA;"A";"black";"red";"parity";4;300;0;1;1;0
"2069";"SF9";"BRAC2_horiLL_1st300";0;95;692;"L";1;0;NA;"L";"black";"red";"magnit";9;300;1;1;0;0
"2074";"SF9";"BRAC2_horiLL_1st300";1;0;526;"A";1;0;NA;"A";"black";"blue";"magnit";4;0;99;99;99;99
"2078";"SF9";"BRAC2_horiLL_1st300";1;1;698;"A";1;0;NA;"A";"black";"red";"magnit";1;0;0;0;1;0
"2082";"SF9";"BRAC2_horiLL_1st300";1;2;496;"L";1;0;NA;"L";"black";"red";"parity";9;0;1;1;0;0
"2086";"SF9";"BRAC2_horiLL_1st300";1;3;465;"L";1;0;NA;"L";"black";"red";"parity";1;0;0;0;0;0
"2090";"SF9";"BRAC2_horiLL_1st300";1;4;639;"A";1;0;NA;"A";"black";"red";"parity";2;0;0;1;0;0
"2094";"SF9";"BRAC2_horiLL_1st300";1;5;506,000000000058;"L";1;0;NA;"L";"black";"blue";"magnit";9;0;1;1;1;0
"2098";"SF9";"BRAC2_horiLL_1st300";1;6;750;"A";1;0;NA;"A";"black";"red";"parity";8;0;1;1;1;0
"2102";"SF9";"BRAC2_horiLL_1st300";1;7;576;"A";1;0;NA;"A";"black";"blue";"parity";2;0;0;0;1;0
"2106";"SF9";"BRAC2_horiLL_1st300";1;8;489;"L";1;0;NA;"L";"black";"red";"magnit";7;0;1;1;1;0
"2110";"SF9";"BRAC2_horiLL_1st300";1;9;548,999999999942;"L";1;0;NA;"L";"black";"blue";"magnit";8;0;0;0;1;0
"2114";"SF9";"BRAC2_horiLL_1st300";1;10;384,000000000058;"A";1;0;NA;"A";"black";"red";"magnit";1;0;0;1;1;0
"2118";"SF9";"BRAC2_horiLL_1st300";1;11;616;"A";1;1;NA;"L";"black";"red";"parity";3;0;1;1;0;0
"2122";"SF9";"BRAC2_horiLL_1st300";1;12;558;"L";1;0;NA;"L";"black";"red";"magnit";8;0;1;0;0;1
"2126";"SF9";"BRAC2_horiLL_1st300";1;13;691,000000000058;"A";1;1;NA;"L";"black";"red";"parity";3;0;1;0;0;0
"2130";"SF9";"BRAC2_horiLL_1st300";1;14;664,999999999942;"L";1;1;NA;"A";"black";"red";"magnit";4;0;1;1;0;1
"2134";"SF9";"BRAC2_horiLL_1st300";1;15;603;"A";1;0;NA;"A";"black";"blue";"magnit";1;0;0;0;1;1
"2138";"SF9";"BRAC2_horiLL_1st300";1;16;975;"L";1;1;NA;"A";"black";"red";"parity";4;0;1;0;1;0
"2142";"SF9";"BRAC2_horiLL_1st300";1;17;651,000000000116;"A";1;0;NA;"A";"black";"blue";"magnit";2;0;1;0;1;1
"2146";"SF9";"BRAC2_horiLL_1st300";1;18;1024,99999999988;"L";1;0;NA;"L";"black";"red";"parity";7;0;1;1;1;0
"2150";"SF9";"BRAC2_horiLL_1st300";1;19;790;"A";1;0;NA;"A";"black";"red";"parity";6;0;0;1;0;0
"2154";"SF9";"BRAC2_horiLL_1st300";1;20;476;"A";1;0;NA;"A";"black";"red";"magnit";3;0;1;0;0;0
"2158";"SF9";"BRAC2_horiLL_1st300";1;21;524;"L";1;0;NA;"L";"black";"blue";"magnit";7;0;0;1;1;0
"2162";"SF9";"BRAC2_horiLL_1st300";1;22;529;"A";1;1;NA;"L";"black";"red";"parity";1;0;1;0;1;0
"2166";"SF9";"BRAC2_horiLL_1st300";1;23;565;"L";1;0;NA;"L";"black";"blue";"parity";9;0;0;0;1;1
"2170";"SF9";"BRAC2_horiLL_1st300";1;24;776;"L";1;0;NA;"L";"black";"blue";"parity";3;0;0;0;0;0
"2174";"SF9";"BRAC2_horiLL_1st300";1;25;627,999999999884;"A";1;0;NA;"A";"black";"blue";"parity";2;0;0;1;0;0
"2178";"SF9";"BRAC2_horiLL_1st300";1;26;542;"L";1;0;NA;"L";"black";"blue";"magnit";6;0;1;1;0;0
"2182";"SF9";"BRAC2_horiLL_1st300";1;27;623;"L";1;0;NA;"L";"black";"red";"parity";9;0;1;0;1;0
"2186";"SF9";"BRAC2_horiLL_1st300";1;28;959;"A";1;0;NA;"A";"black";"red";"magnit";1;0;1;1;0;0
"2190";"SF9";"BRAC2_horiLL_1st300";1;29;1089;"L";1;0;NA;"L";"black";"blue";"parity";3;0;1;1;1;0
"2194";"SF9";"BRAC2_horiLL_1st300";1;30;900;"L";1;0;NA;"L";"black";"red";"magnit";9;0;1;0;1;0
"2198";"SF9";"BRAC2_horiLL_1st300";1;31;464,999999999884;"L";1;0;NA;"L";"black";"red";"magnit";7;0;0;0;0;0
"2202";"SF9";"BRAC2_horiLL_1st300";1;32;486;"A";1;0;NA;"A";"black";"blue";"parity";4;0;1;1;1;0
"2206";"SF9";"BRAC2_horiLL_1st300";1;33;523;"L";1;0;NA;"L";"black";"blue";"parity";9;0;0;1;0;0
"2210";"SF9";"BRAC2_horiLL_1st300";1;34;498,000000000116;"A";1;0;NA;"A";"black";"red";"parity";2;0;0;1;1;0
"2214";"SF9";"BRAC2_horiLL_1st300";1;35;444;"A";1;0;NA;"A";"black";"blue";"magnit";4;0;1;0;1;0
"2218";"SF9";"BRAC2_horiLL_1st300";1;36;445;"L";1;0;NA;"L";"black";"blue";"magnit";7;0;0;1;0;0
"2222";"SF9";"BRAC2_horiLL_1st300";1;37;485;"L";1;0;NA;"L";"black";"blue";"parity";3;0;1;0;0;0
"2226";"SF9";"BRAC2_horiLL_1st300";1;38;478;"L";1;0;NA;"L";"black";"blue";"parity";7;0;0;0;0;0
"2230";"SF9";"BRAC2_horiLL_1st300";1;39;479;"A";1;0;NA;"A";"black";"red";"magnit";2;0;1;1;1;0
"2234";"SF9";"BRAC2_horiLL_1st300";1;40;363;"L";1;1;NA;"A";"black";"blue";"parity";8;0;1;0;1;0
"2238";"SF9";"BRAC2_horiLL_1st300";1;41;486,000000000116;"L";1;0;NA;"L";"black";"red";"magnit";7;0;1;1;1;1
"2242";"SF9";"BRAC2_horiLL_1st300";1;42;533;"L";1;1;NA;"A";"black";"red";"parity";8;0;1;1;0;0
"2246";"SF9";"BRAC2_horiLL_1st300";1;43;487;"A";1;0;NA;"A";"black";"red";"magnit";2;0;1;0;0;1
"2250";"SF9";"BRAC2_horiLL_1st300";1;44;825;"A";1;0;NA;"A";"black";"blue";"parity";6;0;1;0;1;0
"2254";"SF9";"BRAC2_horiLL_1st300";1;45;465;"A";1;0;NA;"A";"black";"blue";"magnit";3;0;1;0;0;0
"2258";"SF9";"BRAC2_horiLL_1st300";1;46;522;"L";1;0;NA;"L";"black";"red";"magnit";8;0;0;1;1;0
"2262";"SF9";"BRAC2_horiLL_1st300";1;47;465;"A";1;1;NA;"L";"black";"red";"parity";3;0;1;0;0;0
"2266";"SF9";"BRAC2_horiLL_1st300";1;48;486;"L";1;0;NA;"L";"black";"blue";"parity";7;0;0;0;1;1
"2270";"SF9";"BRAC2_horiLL_1st300";1;49;552;"A";1;1;NA;"L";"black";"blue";"magnit";6;0;1;0;0;0
"2274";"SF9";"BRAC2_horiLL_1st300";1;50;552,000000000116;"A";1;0;NA;"A";"black";"red";"magnit";3;0;0;1;1;1
"2278";"SF9";"BRAC2_horiLL_1st300";1;51;630;"A";1;0;NA;"A";"black";"red";"magnit";4;0;0;0;0;0
"2282";"SF9";"BRAC2_horiLL_1st300";1;52;560;"L";1;0;NA;"L";"black";"red";"magnit";6;0;0;1;0;0
"2286";"SF9";"BRAC2_horiLL_1st300";1;53;602;"L";1;0;NA;"L";"black";"blue";"magnit";9;0;0;0;1;0
"2290";"SF9";"BRAC2_horiLL_1st300";1;54;815;"L";1;0;NA;"L";"black";"red";"magnit";6;0;0;0;1;0
"2294";"SF9";"BRAC2_horiLL_1st300";1;55;519;"L";1;0;NA;"L";"black";"blue";"magnit";8;0;0;0;1;0
"2298";"SF9";"BRAC2_horiLL_1st300";1;56;545;"A";1;0;NA;"A";"black";"blue";"magnit";1;0;0;1;0;0
"2302";"SF9";"BRAC2_horiLL_1st300";1;57;489;"L";1;0;NA;"L";"black";"blue";"magnit";8;0;0;1;0;0
"2306";"SF9";"BRAC2_horiLL_1st300";1;58;700;"A";1;1;NA;"L";"black";"red";"magnit";6;0;0;0;1;0
"2310";"SF9";"BRAC2_horiLL_1st300";1;59;509;"L";1;0;NA;"L";"black";"red";"magnit";9;0;0;0;0;1
"2314";"SF9";"BRAC2_horiLL_1st300";1;60;658;"A";1;0;NA;"A";"black";"blue";"magnit";2;0;0;1;1;0
"2318";"SF9";"BRAC2_horiLL_1st300";1;61;514;"L";1;1;NA;"A";"black";"red";"parity";8;0;1;0;1;0
"2322";"SF9";"BRAC2_horiLL_1st300";1;62;551;"A";1;0;NA;"A";"black";"red";"parity";4;0;0;0;0;1
"2326";"SF9";"BRAC2_horiLL_1st300";1;63;626;"L";1;0;NA;"L";"black";"blue";"parity";1;0;0;1;1;0
"2330";"SF9";"BRAC2_horiLL_1st300";1;64;535;"A";1;0;NA;"A";"black";"blue";"parity";2;0;0;1;0;0
"2334";"SF9";"BRAC2_horiLL_1st300";1;65;486;"L";1;1;NA;"A";"black";"blue";"parity";4;0;0;0;0;0
"2338";"SF9";"BRAC2_horiLL_1st300";1;66;600;"L";1;0;NA;"L";"black";"blue";"parity";9;0;0;1;0;1
"2342";"SF9";"BRAC2_horiLL_1st300";1;67;899;"L";1;0;NA;"L";"black";"blue";"magnit";7;0;1;0;0;0
"2346";"SF9";"BRAC2_horiLL_1st300";1;68;435;"A";1;0;NA;"A";"black";"red";"magnit";2;0;0;1;1;0
"2350";"SF9";"BRAC2_horiLL_1st300";1;69;594;"A";1;0;NA;"A";"black";"blue";"magnit";4;0;0;0;1;0
"2354";"SF9";"BRAC2_horiLL_1st300";1;70;599;"A";1;0;NA;"A";"black";"red";"parity";6;0;1;0;1;0
"2358";"SF9";"BRAC2_horiLL_1st300";1;71;481;"A";1;0;NA;"A";"black";"blue";"parity";4;0;0;0;1;0
"2362";"SF9";"BRAC2_horiLL_1st300";1;72;489;"L";1;0;NA;"L";"black";"red";"magnit";8;0;1;1;1;0
"2366";"SF9";"BRAC2_horiLL_1st300";1;73;472;"A";1;0;NA;"A";"black";"red";"parity";2;0;1;1;0;0
"2370";"SF9";"BRAC2_horiLL_1st300";1;74;781;"A";1;0;NA;"A";"black";"blue";"parity";6;0;0;0;1;0
"2374";"SF9";"BRAC2_horiLL_1st300";1;75;465;"A";1;0;NA;"A";"black";"blue";"magnit";2;0;1;0;0;0
"2378";"SF9";"BRAC2_horiLL_1st300";1;76;452;"A";1;0;NA;"A";"black";"blue";"parity";8;0;1;0;0;0
"2382";"SF9";"BRAC2_horiLL_1st300";1;77;440;"L";1;0;NA;"L";"black";"blue";"parity";7;0;0;1;0;0
"2386";"SF9";"BRAC2_horiLL_1st300";1;78;447,999999999884;"L";1;0;NA;"L";"black";"red";"magnit";9;0;1;0;1;0
"2390";"SF9";"BRAC2_horiLL_1st300";1;79;549,000000000116;"A";1;0;NA;"A";"black";"red";"parity";4;0;1;1;0;0
"2394";"SF9";"BRAC2_horiLL_1st300";1;80;616;"L";1;0;NA;"L";"black";"red";"parity";9;0;0;1;0;0
"2398";"SF9";"BRAC2_horiLL_1st300";1;81;508,000000000116;"L";1;0;NA;"L";"black";"red";"parity";7;0;0;0;0;0
"2402";"SF9";"BRAC2_horiLL_1st300";1;82;541;"A";1;0;NA;"A";"black";"red";"magnit";4;0;1;1;0;0
"2406";"SF9";"BRAC2_horiLL_1st300";1;83;523;"A";1;0;NA;"A";"black";"blue";"magnit";1;0;0;0;1;0
"2410";"SF9";"BRAC2_horiLL_1st300";1;84;645,999999999884;"A";1;1;NA;"L";"black";"blue";"magnit";6;0;0;1;0;0
"2414";"SF9";"BRAC2_horiLL_1st300";1;85;584;"A";1;0;NA;"A";"black";"blue";"magnit";3;0;0;1;0;1
"2418";"SF9";"BRAC2_horiLL_1st300";1;86;495;"A";1;1;NA;"L";"black";"blue";"parity";1;0;1;1;0;0
"2422";"SF9";"BRAC2_horiLL_1st300";1;87;569;"A";1;0;NA;"A";"black";"blue";"parity";8;0;0;1;0;1
"2426";"SF9";"BRAC2_horiLL_1st300";1;88;713;"A";1;0;NA;"A";"black";"red";"parity";6;0;0;0;1;0
"2430";"SF9";"BRAC2_horiLL_1st300";1;89;498,000000000116;"A";1;0;NA;"A";"black";"red";"magnit";3;0;1;0;0;0
"2434";"SF9";"BRAC2_horiLL_1st300";1;90;582;"A";1;0;NA;"A";"black";"blue";"parity";6;0;1;0;1;0
"2438";"SF9";"BRAC2_horiLL_1st300";1;91;478;"A";1;1;NA;"L";"black";"red";"parity";7;0;0;1;1;0
"2442";"SF9";"BRAC2_horiLL_1st300";1;92;476;"L";1;1;NA;"A";"black";"blue";"magnit";3;0;1;1;1;1
"2446";"SF9";"BRAC2_horiLL_1st300";1;93;786;"L";1;0;NA;"L";"black";"blue";"parity";1;0;1;1;0;1
"2450";"SF9";"BRAC2_horiLL_1st300";1;94;553,999999999884;"L";1;0;NA;"L";"black";"blue";"magnit";9;0;1;0;0;0
"2454";"SF9";"BRAC2_horiLL_1st300";1;95;1141,00000000012;"L";1;0;NA;"L";"black";"red";"parity";1;0;1;0;1;0
"2459";"SF9";"BRAC2_horiLL_1st300";2;0;748;"L";1;0;NA;"L";"black";"blue";"magnit";9;300;99;99;99;99
"2463";"SF9";"BRAC2_horiLL_1st300";2;1;409;"A";1;1;NA;"L";"black";"blue";"parity";1;300;1;0;0;0
"2467";"SF9";"BRAC2_horiLL_1st300";2;2;417;"A";1;1;NA;"L";"black";"red";"parity";9;300;0;0;1;1
"2471";"SF9";"BRAC2_horiLL_1st300";2;3;512,000000000116;"A";1;0;NA;"A";"black";"blue";"parity";8;300;0;1;1;1
"2475";"SF9";"BRAC2_horiLL_1st300";2;4;452;"A";1;0;NA;"A";"black";"blue";"magnit";1;300;1;0;0;0
"2479";"SF9";"BRAC2_horiLL_1st300";2;5;488,999999999884;"A";1;0;NA;"A";"black";"blue";"parity";2;300;1;0;0;0
"2483";"SF9";"BRAC2_horiLL_1st300";2;6;422;"A";1;0;NA;"A";"black";"blue";"parity";8;300;0;0;0;0
"2487";"SF9";"BRAC2_horiLL_1st300";2;7;459,999999999884;"A";1;0;NA;"A";"black";"red";"parity";2;300;0;0;1;0
"2491";"SF9";"BRAC2_horiLL_1st300";2;8;448,999999999884;"L";1;1;NA;"A";"black";"blue";"magnit";4;300;1;0;1;0
"2495";"SF9";"BRAC2_horiLL_1st300";2;9;746,999999999884;"L";1;0;NA;"L";"black";"blue";"parity";9;300;1;1;0;1
"2499";"SF9";"BRAC2_horiLL_1st300";2;10;650;"A";1;0;NA;"A";"black";"red";"parity";8;300;0;1;1;0
"2503";"SF9";"BRAC2_horiLL_1st300";2;11;711,000000000116;"L";1;0;NA;"L";"black";"red";"magnit";6;300;1;1;0;0
"2507";"SF9";"BRAC2_horiLL_1st300";2;12;464,000000000116;"A";1;0;NA;"A";"black";"blue";"parity";8;300;1;1;1;0
"2511";"SF9";"BRAC2_horiLL_1st300";2;13;462;"A";1;1;NA;"L";"black";"red";"parity";3;300;0;1;1;0
"2515";"SF9";"BRAC2_horiLL_1st300";2;14;537;"A";1;0;NA;"A";"black";"blue";"parity";4;300;0;1;1;1
"2519";"SF9";"BRAC2_horiLL_1st300";2;15;448,000000000116;"L";1;0;NA;"L";"black";"blue";"parity";9;300;0;1;0;0
"2523";"SF9";"BRAC2_horiLL_1st300";2;16;446;"L";1;0;NA;"L";"black";"blue";"parity";7;300;0;0;0;0
"2527";"SF9";"BRAC2_horiLL_1st300";2;17;369;"A";1;0;NA;"A";"black";"blue";"magnit";4;300;1;1;0;0
"2531";"SF9";"BRAC2_horiLL_1st300";2;18;388;"L";1;1;NA;"A";"black";"blue";"parity";6;300;1;0;0;0
"2535";"SF9";"BRAC2_horiLL_1st300";2;19;541,000000000116;"A";1;0;NA;"A";"black";"blue";"magnit";4;300;1;0;0;1
"2539";"SF9";"BRAC2_horiLL_1st300";2;20;408;"L";1;1;NA;"A";"black";"red";"magnit";2;300;0;0;1;0
"2543";"SF9";"BRAC2_horiLL_1st300";2;21;535;"A";1;0;NA;"A";"black";"blue";"parity";4;300;1;0;1;1
"2547";"SF9";"BRAC2_horiLL_1st300";2;22;617,000000000116;"L";1;0;NA;"L";"black";"blue";"parity";7;300;0;1;0;0
"2551";"SF9";"BRAC2_horiLL_1st300";2;23;486,999999999884;"A";1;0;NA;"A";"black";"blue";"magnit";2;300;1;1;0;0
"2555";"SF9";"BRAC2_horiLL_1st300";2;24;437;"L";1;0;NA;"L";"black";"red";"parity";3;300;1;1;1;0
"2559";"SF9";"BRAC2_horiLL_1st300";2;25;291;"A";1;0;NA;"A";"black";"red";"parity";6;300;0;1;0;0
"2563";"SF9";"BRAC2_horiLL_1st300";2;26;437;"A";1;0;NA;"A";"black";"blue";"magnit";3;300;1;0;1;0
"2567";"SF9";"BRAC2_horiLL_1st300";2;27;325;"L";1;1;NA;"A";"black";"red";"magnit";2;300;0;0;1;0
"2571";"SF9";"BRAC2_horiLL_1st300";2;28;448;"L";1;1;NA;"A";"black";"red";"parity";6;300;1;0;0;1
"2575";"SF9";"BRAC2_horiLL_1st300";2;29;608;"A";1;0;NA;"A";"black";"red";"parity";4;300;0;0;0;1
"2579";"SF9";"BRAC2_horiLL_1st300";2;30;322;"A";1;1;NA;"L";"black";"blue";"parity";1;300;0;1;1;0
"2583";"SF9";"BRAC2_horiLL_1st300";2;31;434;"A";1;0;NA;"A";"black";"blue";"parity";2;300;0;1;0;1
"2587";"SF9";"BRAC2_horiLL_1st300";2;32;785,000000000116;"L";1;0;NA;"L";"black";"red";"parity";7;300;0;1;1;0
"2591";"SF9";"BRAC2_horiLL_1st300";2;33;594;"L";1;0;NA;"L";"black";"red";"parity";9;300;0;0;0;0
"2595";"SF9";"BRAC2_horiLL_1st300";2;34;441;"A";1;0;NA;"A";"black";"blue";"magnit";3;300;1;1;1;0
"2599";"SF9";"BRAC2_horiLL_1st300";2;35;619;"L";1;0;NA;"L";"black";"blue";"magnit";7;300;0;1;0;0
"2603";"SF9";"BRAC2_horiLL_1st300";2;36;432;"A";1;0;NA;"A";"black";"blue";"magnit";2;300;0;1;0;0
"2607";"SF9";"BRAC2_horiLL_1st300";2;37;466,000000000116;"L";1;0;NA;"L";"black";"red";"magnit";8;300;0;1;1;0
"2611";"SF9";"BRAC2_horiLL_1st300";2;38;418;"A";1;0;NA;"A";"black";"red";"magnit";3;300;0;1;0;0
"2615";"SF9";"BRAC2_horiLL_1st300";2;39;404;"L";1;0;NA;"L";"black";"blue";"magnit";8;300;0;1;1;0
"2619";"SF9";"BRAC2_horiLL_1st300";2;40;545,000000000116;"A";1;0;NA;"A";"black";"red";"parity";4;300;1;1;1;0
"2623";"SF9";"BRAC2_horiLL_1st300";2;41;428;"A";1;1;NA;"L";"black";"red";"parity";1;300;0;1;0;0
"2627";"SF9";"BRAC2_horiLL_1st300";2;42;693;"L";1;0;NA;"L";"black";"blue";"magnit";6;300;1;0;1;1
"2631";"SF9";"BRAC2_horiLL_1st300";2;43;405;"A";1;1;NA;"L";"black";"blue";"parity";1;300;1;0;0;0
"2635";"SF9";"BRAC2_horiLL_1st300";2;44;563,999999999884;"A";1;0;NA;"A";"black";"red";"magnit";4;300;1;1;1;1
"2639";"SF9";"BRAC2_horiLL_1st300";2;45;528;"L";1;0;NA;"L";"black";"blue";"parity";7;300;1;1;1;0
"2643";"SF9";"BRAC2_horiLL_1st300";2;46;577;"A";1;0;NA;"A";"black";"red";"parity";4;300;0;1;1;0
"2647";"SF9";"BRAC2_horiLL_1st300";2;47;495;"A";1;1;NA;"L";"black";"red";"parity";1;300;0;1;0;0
"2651";"SF9";"BRAC2_horiLL_1st300";2;48;473,000000000116;"L";1;0;NA;"L";"black";"red";"magnit";7;300;1;0;0;1
"2655";"SF9";"BRAC2_horiLL_1st300";2;49;746,000000000116;"L";1;1;NA;"A";"black";"blue";"parity";2;300;1;1;1;0
"2659";"SF9";"BRAC2_horiLL_1st300";2;50;702,999999999884;"L";1;1;NA;"A";"black";"red";"magnit";1;300;1;0;1;1
"2663";"SF9";"BRAC2_horiLL_1st300";2;51;492;"L";1;0;NA;"L";"black";"red";"parity";7;300;1;1;0;1
"2667";"SF9";"BRAC2_horiLL_1st300";2;52;521;"A";1;0;NA;"A";"black";"red";"magnit";4;300;1;1;0;0
"2671";"SF9";"BRAC2_horiLL_1st300";2;53;1236,99999999988;"A";1;0;NA;"A";"black";"red";"parity";6;300;1;0;0;0
"2675";"SF9";"BRAC2_horiLL_1st300";2;54;637;"A";1;0;NA;"A";"black";"blue";"parity";4;300;0;0;1;0
"2679";"SF9";"BRAC2_horiLL_1st300";2;55;423;"A";1;0;NA;"A";"black";"red";"magnit";2;300;1;0;1;0
"2683";"SF9";"BRAC2_horiLL_1st300";2;56;616,999999999884;"A";1;0;NA;"A";"black";"blue";"parity";6;300;1;0;1;0
"2687";"SF9";"BRAC2_horiLL_1st300";2;57;421;"A";1;0;NA;"A";"black";"red";"magnit";3;300;1;0;1;0
"2691";"SF9";"BRAC2_horiLL_1st300";2;58;443,000000000116;"A";1;1;NA;"L";"black";"red";"magnit";8;300;0;1;0;0
"2695";"SF9";"BRAC2_horiLL_1st300";2;59;528;"A";1;0;NA;"A";"black";"red";"magnit";3;300;0;1;0;1
"2699";"SF9";"BRAC2_horiLL_1st300";2;60;683;"A";1;0;NA;"A";"black";"red";"parity";2;300;1;0;0;0
"2703";"SF9";"BRAC2_horiLL_1st300";2;61;565;"L";1;0;NA;"L";"black";"red";"magnit";9;300;1;1;0;0
"2707";"SF9";"BRAC2_horiLL_1st300";2;62;483;"L";1;0;NA;"L";"black";"blue";"magnit";7;300;0;0;1;0
"2711";"SF9";"BRAC2_horiLL_1st300";2;63;525;"L";1;0;NA;"L";"black";"blue";"parity";3;300;1;0;0;0
"2715";"SF9";"BRAC2_horiLL_1st300";2;64;532,000000000116;"L";1;1;NA;"A";"black";"red";"magnit";1;300;1;1;1;0
"2719";"SF9";"BRAC2_horiLL_1st300";2;65;797;"L";1;0;NA;"L";"black";"blue";"magnit";9;300;0;1;1;1
"2723";"SF9";"BRAC2_horiLL_1st300";2;66;792;"L";1;0;NA;"L";"black";"blue";"magnit";8;300;0;0;0;0
"2727";"SF9";"BRAC2_horiLL_1st300";2;67;570,999999999884;"L";1;0;NA;"L";"black";"red";"magnit";6;300;0;0;1;0
"2731";"SF9";"BRAC2_horiLL_1st300";2;68;502,999999999884;"L";1;0;NA;"L";"black";"blue";"magnit";9;300;0;0;1;0
"2735";"SF9";"BRAC2_horiLL_1st300";2;69;444;"A";1;0;NA;"A";"black";"blue";"magnit";3;300;0;1;0;0
"2739";"SF9";"BRAC2_horiLL_1st300";2;70;544;"L";1;0;NA;"L";"black";"red";"magnit";7;300;0;1;1;0
"2743";"SF9";"BRAC2_horiLL_1st300";2;71;419;"A";1;0;NA;"A";"black";"red";"parity";2;300;1;1;0;0
"2747";"SF9";"BRAC2_horiLL_1st300";2;72;621;"L";1;0;NA;"L";"black";"blue";"magnit";6;300;1;1;1;0
"2751";"SF9";"BRAC2_horiLL_1st300";2;73;564,999999999884;"L";1;0;NA;"L";"black";"red";"parity";7;300;1;0;1;0
"2755";"SF9";"BRAC2_horiLL_1st300";2;74;518,000000000116;"A";1;0;NA;"A";"black";"blue";"magnit";2;300;1;1;1;0
"2759";"SF9";"BRAC2_horiLL_1st300";2;75;560;"A";1;0;NA;"A";"black";"blue";"magnit";1;300;0;0;0;0
"2763";"SF9";"BRAC2_horiLL_1st300";2;76;423,999999999884;"L";1;0;NA;"L";"black";"red";"magnit";7;300;0;1;1;0
"2767";"SF9";"BRAC2_horiLL_1st300";2;77;635;"L";1;0;NA;"L";"black";"blue";"parity";3;300;1;0;1;0
"2771";"SF9";"BRAC2_horiLL_1st300";2;78;365;"A";1;1;NA;"L";"black";"blue";"magnit";6;300;1;0;0;0
"2775";"SF9";"BRAC2_horiLL_1st300";2;79;478,000000000116;"L";1;0;NA;"L";"black";"red";"magnit";9;300;0;0;1;1
"2779";"SF9";"BRAC2_horiLL_1st300";2;80;245,999999999884;"A";1;0;NA;"A";"black";"red";"parity";8;300;1;1;0;0
"2783";"SF9";"BRAC2_horiLL_1st300";2;81;573,999999999884;"A";1;0;NA;"A";"black";"red";"magnit";4;300;1;0;0;0
"2787";"SF9";"BRAC2_horiLL_1st300";2;82;481;"L";1;1;NA;"A";"black";"blue";"parity";6;300;1;0;1;0
"2791";"SF9";"BRAC2_horiLL_1st300";2;83;543;"L";1;0;NA;"L";"black";"blue";"parity";9;300;0;1;0;1
"2795";"SF9";"BRAC2_horiLL_1st300";2;84;468;"L";1;0;NA;"L";"black";"red";"magnit";8;300;1;0;1;0
"2799";"SF9";"BRAC2_horiLL_1st300";2;85;733,000000000233;"L";1;0;NA;"L";"black";"red";"magnit";6;300;0;0;0;0
"2803";"SF9";"BRAC2_horiLL_1st300";2;86;414;"A";1;1;NA;"L";"black";"blue";"parity";3;300;1;0;1;0
"2807";"SF9";"BRAC2_horiLL_1st300";2;87;634;"L";1;0;NA;"L";"black";"red";"parity";1;300;0;0;1;1
"2811";"SF9";"BRAC2_horiLL_1st300";2;88;485;"L";1;0;NA;"L";"black";"blue";"magnit";8;300;1;0;1;0
"2815";"SF9";"BRAC2_horiLL_1st300";2;89;489,999999999767;"L";1;1;NA;"A";"black";"red";"magnit";1;300;0;1;1;0
"2819";"SF9";"BRAC2_horiLL_1st300";2;90;875;"L";1;0;NA;"L";"black";"red";"parity";3;300;1;1;0;1
"2823";"SF9";"BRAC2_horiLL_1st300";2;91;712;"L";1;0;NA;"L";"black";"red";"parity";9;300;0;0;0;0
"2827";"SF9";"BRAC2_horiLL_1st300";2;92;487;"L";1;1;NA;"A";"black";"red";"parity";8;300;0;1;0;0
"2831";"SF9";"BRAC2_horiLL_1st300";2;93;723,000000000233;"L";1;0;NA;"L";"black";"red";"magnit";9;300;1;1;0;1
"2835";"SF9";"BRAC2_horiLL_1st300";2;94;561;"L";1;0;NA;"L";"black";"blue";"magnit";7;300;0;0;1;0
"2839";"SF9";"BRAC2_horiLL_1st300";2;95;600;"L";1;1;NA;"A";"black";"blue";"magnit";1;300;0;1;0;0
"2844";"SF9";"BRAC2_horiLL_1st300";3;0;582;"L";1;0;NA;"L";"black";"blue";"parity";9;0;99;99;99;99
"2848";"SF9";"BRAC2_horiLL_1st300";3;1;493;"A";1;0;NA;"A";"black";"red";"magnit";3;0;1;1;1;0
"2852";"SF9";"BRAC2_horiLL_1st300";3;2;644;"A";1;0;NA;"A";"black";"red";"parity";8;0;1;0;0;0
"2856";"SF9";"BRAC2_horiLL_1st300";3;3;494;"A";1;0;NA;"A";"black";"red";"parity";2;0;0;0;0;0
"2860";"SF9";"BRAC2_horiLL_1st300";3;4;508;"L";1;0;NA;"L";"black";"red";"magnit";9;0;1;1;0;0
"2864";"SF9";"BRAC2_horiLL_1st300";3;5;687;"L";1;0;NA;"L";"black";"blue";"parity";3;0;1;0;1;0
"2868";"SF9";"BRAC2_horiLL_1st300";3;6;505;"L";1;0;NA;"L";"black";"blue";"magnit";9;0;1;0;0;0
"2872";"SF9";"BRAC2_horiLL_1st300";3;7;471;"A";1;0;NA;"A";"black";"red";"magnit";1;0;0;1;1;0
"2876";"SF9";"BRAC2_horiLL_1st300";3;8;599;"L";1;1;NA;"A";"black";"blue";"parity";6;0;1;0;1;0
"2880";"SF9";"BRAC2_horiLL_1st300";3;9;426;"A";1;0;NA;"A";"black";"blue";"magnit";1;0;1;0;0;1
"2884";"SF9";"BRAC2_horiLL_1st300";3;10;539;"A";1;0;NA;"A";"black";"blue";"parity";2;0;1;0;0;0
"2888";"SF9";"BRAC2_horiLL_1st300";3;11;768;"A";1;0;NA;"A";"black";"blue";"magnit";3;0;1;0;0;0
"2892";"SF9";"BRAC2_horiLL_1st300";3;12;712;"L";1;0;NA;"L";"black";"red";"parity";1;0;1;1;1;0
"2896";"SF9";"BRAC2_horiLL_1st300";3;13;560;"L";1;0;NA;"L";"black";"blue";"magnit";9;0;1;0;1;0
"2900";"SF9";"BRAC2_horiLL_1st300";3;14;642,000000000233;"L";1;1;NA;"A";"black";"red";"magnit";3;0;0;1;1;0
"2904";"SF9";"BRAC2_horiLL_1st300";3;15;521;"L";1;0;NA;"L";"black";"red";"parity";9;0;1;1;0;1
"2908";"SF9";"BRAC2_horiLL_1st300";3;16;460;"A";1;0;NA;"A";"black";"red";"magnit";2;0;1;1;0;0
"2912";"SF9";"BRAC2_horiLL_1st300";3;17;458;"A";1;0;NA;"A";"black";"red";"parity";8;0;1;0;0;0
"2916";"SF9";"BRAC2_horiLL_1st300";3;18;658;"A";1;0;NA;"A";"black";"red";"parity";6;0;0;0;0;0
"2920";"SF9";"BRAC2_horiLL_1st300";3;19;544;"A";1;0;NA;"A";"black";"blue";"magnit";2;0;1;0;1;0
"2924";"SF9";"BRAC2_horiLL_1st300";3;20;369;"L";1;1;NA;"A";"black";"red";"parity";6;0;1;0;1;0
"2928";"SF9";"BRAC2_horiLL_1st300";3;21;493;"A";1;0;NA;"A";"black";"blue";"magnit";3;0;1;0;1;1
"2932";"SF9";"BRAC2_horiLL_1st300";3;22;436;"A";1;1;NA;"L";"black";"blue";"parity";9;0;1;1;0;0
"2936";"SF9";"BRAC2_horiLL_1st300";3;23;648;"L";1;0;NA;"L";"black";"red";"magnit";6;0;1;0;1;1
"2940";"SF9";"BRAC2_horiLL_1st300";3;24;563;"A";1;0;NA;"A";"black";"blue";"parity";2;0;1;1;1;0
"2944";"SF9";"BRAC2_horiLL_1st300";3;25;472,999999999767;"L";1;0;NA;"L";"black";"blue";"magnit";9;0;1;1;0;0
"2948";"SF9";"BRAC2_horiLL_1st300";3;26;767;"A";1;0;NA;"A";"black";"red";"parity";4;0;1;1;1;0
"2952";"SF9";"BRAC2_horiLL_1st300";3;27;526;"L";1;0;NA;"L";"black";"red";"magnit";7;0;1;1;0;0
"2956";"SF9";"BRAC2_horiLL_1st300";3;28;504;"A";1;0;NA;"A";"black";"blue";"magnit";4;0;0;1;1;0
"2960";"SF9";"BRAC2_horiLL_1st300";3;29;465;"L";1;0;NA;"L";"black";"blue";"parity";7;0;1;1;0;0
"2964";"SF9";"BRAC2_horiLL_1st300";3;30;663;"L";1;0;NA;"L";"black";"blue";"parity";1;0;0;0;0;0
"2968";"SF9";"BRAC2_horiLL_1st300";3;31;646;"A";1;0;NA;"A";"black";"blue";"parity";6;0;0;1;0;0
"2972";"SF9";"BRAC2_horiLL_1st300";3;32;399;"L";1;0;NA;"L";"black";"red";"parity";7;0;0;1;1;0
"2976";"SF9";"BRAC2_horiLL_1st300";3;33;489;"L";1;0;NA;"L";"black";"blue";"magnit";6;0;1;0;1;0
"2980";"SF9";"BRAC2_horiLL_1st300";3;34;544,999999999767;"L";1;0;NA;"L";"black";"blue";"parity";7;0;1;0;0;0
"2984";"SF9";"BRAC2_horiLL_1st300";3;35;432;"A";1;0;NA;"A";"black";"blue";"magnit";1;0;1;1;0;0
"2988";"SF9";"BRAC2_horiLL_1st300";3;36;418;"L";1;0;NA;"L";"black";"blue";"magnit";7;0;0;1;0;0
"2992";"SF9";"BRAC2_horiLL_1st300";3;37;439,000000000233;"L";1;0;NA;"L";"black";"blue";"parity";3;0;1;0;0;0
"2996";"SF9";"BRAC2_horiLL_1st300";3;38;494;"L";1;0;NA;"L";"black";"red";"parity";9;0;0;0;1;0
"3000";"SF9";"BRAC2_horiLL_1st300";3;39;372;"A";1;1;NA;"L";"black";"red";"magnit";7;0;1;0;0;0
"3004";"SF9";"BRAC2_horiLL_1st300";3;40;505;"L";1;0;NA;"L";"black";"red";"magnit";9;0;0;0;0;1
"3008";"SF9";"BRAC2_horiLL_1st300";3;41;881,000000000233;"L";1;1;NA;"A";"black";"blue";"parity";4;0;1;1;1;0
"3012";"SF9";"BRAC2_horiLL_1st300";3;42;863;"A";1;0;NA;"A";"black";"blue";"parity";6;0;0;0;0;1
"3016";"SF9";"BRAC2_horiLL_1st300";3;43;558;"A";1;0;NA;"A";"black";"blue";"parity";2;0;0;0;0;0
"3020";"SF9";"BRAC2_horiLL_1st300";3;44;711;"A";1;0;NA;"A";"black";"blue";"parity";8;0;0;0;0;0
"3024";"SF9";"BRAC2_horiLL_1st300";3;45;873;"L";1;0;NA;"L";"black";"red";"parity";1;0;0;1;1;0
"3028";"SF9";"BRAC2_horiLL_1st300";3;46;544;"L";1;0;NA;"L";"black";"blue";"magnit";7;0;1;0;1;0
"3032";"SF9";"BRAC2_horiLL_1st300";3;47;462;"L";1;0;NA;"L";"black";"blue";"magnit";6;0;0;0;0;0
"3036";"SF9";"BRAC2_horiLL_1st300";3;48;540;"L";1;0;NA;"L";"black";"red";"magnit";8;0;0;0;1;0
"3040";"SF9";"BRAC2_horiLL_1st300";3;49;627;"L";1;0;NA;"L";"black";"red";"parity";3;0;1;0;0;0
"3044";"SF9";"BRAC2_horiLL_1st300";3;50;987;"L";1;0;NA;"L";"black";"blue";"magnit";6;0;1;0;1;0
"3048";"SF9";"BRAC2_horiLL_1st300";3;51;520;"L";1;0;NA;"L";"black";"blue";"magnit";8;0;0;0;0;0
"3052";"SF9";"BRAC2_horiLL_1st300";3;52;661;"A";1;0;NA;"A";"black";"red";"magnit";4;0;0;1;1;0
"3056";"SF9";"BRAC2_horiLL_1st300";3;53;539;"A";1;0;NA;"A";"black";"red";"magnit";1;0;0;0;0;0
"3060";"SF9";"BRAC2_horiLL_1st300";3;54;467;"L";1;0;NA;"L";"black";"blue";"magnit";7;0;0;1;1;0
"3064";"SF9";"BRAC2_horiLL_1st300";3;55;626;"A";1;0;NA;"A";"black";"blue";"magnit";2;0;0;1;0;0
"3068";"SF9";"BRAC2_horiLL_1st300";3;56;599,999999999767;"L";1;1;NA;"A";"black";"blue";"magnit";3;0;0;0;0;0
"3072";"SF9";"BRAC2_horiLL_1st300";3;57;447,000000000233;"L";1;0;NA;"L";"black";"blue";"parity";7;0;1;1;0;1
"3076";"SF9";"BRAC2_horiLL_1st300";3;58;550;"A";1;0;NA;"A";"black";"red";"parity";4;0;0;1;1;0
"3080";"SF9";"BRAC2_horiLL_1st300";3;59;485,000000000233;"A";1;0;NA;"A";"black";"red";"magnit";3;0;1;0;0;0
"3084";"SF9";"BRAC2_horiLL_1st300";3;60;452;"A";1;1;NA;"L";"black";"red";"magnit";6;0;0;1;0;0
"3088";"SF9";"BRAC2_horiLL_1st300";3;61;562;"A";1;0;NA;"A";"black";"blue";"magnit";1;0;0;1;1;1
"3092";"SF9";"BRAC2_horiLL_1st300";3;62;505;"A";1;0;NA;"A";"black";"blue";"magnit";2;0;0;0;0;0
"3096";"SF9";"BRAC2_horiLL_1st300";3;63;476;"L";1;1;NA;"A";"black";"blue";"parity";4;0;1;0;0;0
"3100";"SF9";"BRAC2_horiLL_1st300";3;64;665,000000000233;"A";1;1;NA;"L";"black";"red";"parity";3;0;0;1;1;1
"3104";"SF9";"BRAC2_horiLL_1st300";3;65;539;"L";1;0;NA;"L";"black";"red";"parity";9;0;0;0;0;1
"3108";"SF9";"BRAC2_horiLL_1st300";3;66;645;"A";1;0;NA;"A";"black";"red";"parity";2;0;0;1;0;0
"3112";"SF9";"BRAC2_horiLL_1st300";3;67;657;"L";1;0;NA;"L";"black";"blue";"parity";1;0;0;1;1;0
"3116";"SF9";"BRAC2_horiLL_1st300";3;68;606;"L";1;0;NA;"L";"black";"red";"magnit";6;0;1;0;1;0
"3120";"SF9";"BRAC2_horiLL_1st300";3;69;553;"A";1;0;NA;"A";"black";"red";"magnit";4;0;0;1;0;0
"3124";"SF9";"BRAC2_horiLL_1st300";3;70;494;"A";1;0;NA;"A";"black";"red";"magnit";1;0;0;0;0;0
"3128";"SF9";"BRAC2_horiLL_1st300";3;71;640;"L";1;0;NA;"L";"black";"blue";"parity";9;0;1;1;1;0
"3132";"SF9";"BRAC2_horiLL_1st300";3;72;681;"L";1;0;NA;"L";"black";"red";"parity";3;0;0;0;1;0
"3136";"SF9";"BRAC2_horiLL_1st300";3;73;463;"A";1;0;NA;"A";"black";"red";"magnit";4;0;1;1;0;0
"3140";"SF9";"BRAC2_horiLL_1st300";3;74;488;"A";1;0;NA;"A";"black";"red";"magnit";2;0;0;0;0;0
"3144";"SF9";"BRAC2_horiLL_1st300";3;75;491;"A";1;0;NA;"A";"black";"blue";"magnit";4;0;0;0;1;0
"3148";"SF9";"BRAC2_horiLL_1st300";3;76;252;"L";1;1;NA;"A";"black";"blue";"parity";8;0;1;0;0;0
"3152";"SF9";"BRAC2_horiLL_1st300";3;77;562;"L";1;0;NA;"L";"black";"red";"parity";7;0;0;1;1;1
"3156";"SF9";"BRAC2_horiLL_1st300";3;78;391;"A";1;0;NA;"A";"black";"red";"magnit";2;0;1;1;0;0
"3160";"SF9";"BRAC2_horiLL_1st300";3;79;588;"L";1;0;NA;"L";"black";"red";"magnit";8;0;0;1;0;0
"3164";"SF9";"BRAC2_horiLL_1st300";3;80;488;"A";1;0;NA;"A";"black";"red";"parity";2;0;1;1;0;0
"3168";"SF9";"BRAC2_horiLL_1st300";3;81;527,000000000233;"L";1;0;NA;"L";"black";"blue";"magnit";8;0;1;1;1;0
"3172";"SF9";"BRAC2_horiLL_1st300";3;82;428;"L";1;0;NA;"L";"black";"red";"magnit";7;0;0;0;1;0
"3176";"SF9";"BRAC2_horiLL_1st300";3;83;486;"A";1;1;NA;"L";"black";"blue";"parity";3;0;1;0;1;0
"3180";"SF9";"BRAC2_horiLL_1st300";3;84;517;"L";1;0;NA;"L";"black";"red";"magnit";8;0;1;0;1;1
"3184";"SF9";"BRAC2_horiLL_1st300";3;85;619;"A";1;0;NA;"A";"black";"red";"parity";6;0;1;1;0;0
"3188";"SF9";"BRAC2_horiLL_1st300";3;86;520;"A";1;1;NA;"L";"black";"red";"parity";1;0;0;1;0;0
"3192";"SF9";"BRAC2_horiLL_1st300";3;87;517;"L";1;0;NA;"L";"black";"red";"parity";7;0;0;0;0;1
"3196";"SF9";"BRAC2_horiLL_1st300";3;88;482,000000000233;"L";1;1;NA;"A";"black";"blue";"parity";8;0;0;1;1;0
"3200";"SF9";"BRAC2_horiLL_1st300";3;89;501;"A";1;0;NA;"A";"black";"red";"parity";4;0;0;0;1;1
"3204";"SF9";"BRAC2_horiLL_1st300";3;90;731;"A";1;0;NA;"A";"black";"red";"parity";8;0;0;0;0;0
"3208";"SF9";"BRAC2_horiLL_1st300";3;91;548;"A";1;0;NA;"A";"black";"blue";"parity";4;0;0;0;1;0
"3212";"SF9";"BRAC2_horiLL_1st300";3;92;883;"L";1;0;NA;"L";"black";"blue";"magnit";8;0;1;1;0;0
"3216";"SF9";"BRAC2_horiLL_1st300";3;93;807;"L";1;0;NA;"L";"black";"red";"magnit";9;0;0;0;1;0
"3220";"SF9";"BRAC2_horiLL_1st300";3;94;578;"A";1;0;NA;"A";"black";"blue";"magnit";4;0;0;1;1;0
"3224";"SF9";"BRAC2_horiLL_1st300";3;95;754;"L";1;0;NA;"L";"black";"blue";"parity";1;0;1;1;0;0
"3309";"AE8";"BRAC2_horiLA_1st300";0;0;1561,16000004113;"A";1;1;NA;"L";"black";"blue";"parity";4;300;99;99;99;99
"3313";"AE8";"BRAC2_horiLA_1st300";0;1;995,425000088289;"A";1;0;NA;"A";"black";"blue";"magnit";2;300;1;1;0;1
"3317";"AE8";"BRAC2_horiLA_1st300";0;2;718,145000049844;"L";1;0;NA;"L";"black";"blue";"magnit";9;300;0;1;0;0
"3321";"AE8";"BRAC2_horiLA_1st300";0;3;768,519999925047;"A";1;0;NA;"A";"black";"blue";"magnit";2;300;0;1;0;0
"3325";"AE8";"BRAC2_horiLA_1st300";0;4;1270,97499999218;"L";1;1;NA;"A";"black";"red";"parity";9;300;1;0;1;0
"3329";"AE8";"BRAC2_horiLA_1st300";0;5;955,4749999661;"L";1;0;NA;"L";"black";"blue";"parity";8;300;0;1;1;1
"3333";"AE8";"BRAC2_horiLA_1st300";0;6;558,279999997467;"A";1;0;NA;"A";"black";"red";"magnit";2;300;1;1;1;0
"3337";"AE8";"BRAC2_horiLA_1st300";0;7;1471,90999984741;"A";1;0;NA;"A";"black";"blue";"magnit";3;300;0;0;1;0
"3341";"AE8";"BRAC2_horiLA_1st300";0;8;868,994999909773;"A";1;1;NA;"L";"black";"red";"parity";6;300;1;1;1;0
"3345";"AE8";"BRAC2_horiLA_1st300";0;9;848,105000099167;"L";1;0;NA;"L";"black";"red";"parity";4;300;0;0;0;1
"3349";"AE8";"BRAC2_horiLA_1st300";0;10;902,955000055954;"A";1;0;NA;"A";"black";"blue";"parity";1;300;0;1;1;0
"3353";"AE8";"BRAC2_horiLA_1st300";0;11;1940,09500020184;"A";1;0;NA;"A";"black";"red";"parity";7;300;0;0;1;0
"3357";"AE8";"BRAC2_horiLA_1st300";0;12;1222,83999994397;"A";1;0;NA;"A";"black";"blue";"parity";9;300;0;0;1;0
"3361";"AE8";"BRAC2_horiLA_1st300";0;13;1197,57000007667;"L";1;0;NA;"L";"black";"red";"parity";8;300;0;1;1;0
"3365";"AE8";"BRAC2_horiLA_1st300";0;14;572,695000097156;"L";1;0;NA;"L";"black";"blue";"parity";4;300;0;0;1;0
"3369";"AE8";"BRAC2_horiLA_1st300";0;15;535,570000065491;"L";1;0;NA;"L";"black";"red";"magnit";8;300;1;0;1;0
"3373";"AE8";"BRAC2_horiLA_1st300";0;16;491,330000106245;"L";1;0;NA;"L";"black";"blue";"magnit";9;300;0;0;1;0
"3377";"AE8";"BRAC2_horiLA_1st300";0;17;748,455000109971;"A";1;0;NA;"A";"black";"red";"parity";7;300;1;1;1;0
"3381";"AE8";"BRAC2_horiLA_1st300";0;18;461,519999895245;"L";1;0;NA;"L";"black";"red";"magnit";8;300;1;1;0;0
"3385";"AE8";"BRAC2_horiLA_1st300";0;19;619,225000031292;"A";1;0;NA;"A";"black";"blue";"magnit";4;300;0;1;1;0
"3389";"AE8";"BRAC2_horiLA_1st300";0;20;1154,77500017732;"L";1;0;NA;"L";"black";"blue";"parity";8;300;1;1;0;0
"3393";"AE8";"BRAC2_horiLA_1st300";0;21;829,759999876842;"A";1;0;NA;"A";"black";"red";"magnit";4;300;1;1;1;0
"3397";"AE8";"BRAC2_horiLA_1st300";0;22;724,685000022873;"L";1;0;NA;"L";"black";"red";"magnit";9;300;0;1;0;0
"3401";"AE8";"BRAC2_horiLA_1st300";0;23;938,679999904707;"L";1;0;NA;"L";"black";"red";"parity";4;300;1;0;0;0
"3405";"AE8";"BRAC2_horiLA_1st300";0;24;713,05499994196;"A";1;0;NA;"A";"black";"red";"parity";9;300;0;1;0;0
"3409";"AE8";"BRAC2_horiLA_1st300";0;25;1085,69000009447;"A";1;0;NA;"A";"black";"red";"magnit";4;300;1;0;0;0
"3413";"AE8";"BRAC2_horiLA_1st300";0;26;597,249999875203;"L";1;0;NA;"L";"black";"blue";"magnit";9;300;0;1;1;0
"3417";"AE8";"BRAC2_horiLA_1st300";0;27;1211,29000000656;"L";1;0;NA;"L";"black";"blue";"parity";6;300;1;0;0;0
"3421";"AE8";"BRAC2_horiLA_1st300";0;28;597,970000002533;"L";1;0;NA;"L";"black";"blue";"parity";2;300;0;0;0;0
"3425";"AE8";"BRAC2_horiLA_1st300";0;29;748,910000082105;"A";1;0;NA;"A";"black";"blue";"parity";3;300;0;1;0;0
"3429";"AE8";"BRAC2_horiLA_1st300";0;30;769,220000132918;"A";1;0;NA;"A";"black";"blue";"parity";9;300;0;0;0;0
"3433";"AE8";"BRAC2_horiLA_1st300";0;31;654,504999984056;"A";1;0;NA;"A";"black";"blue";"parity";7;300;0;0;0;0
"3437";"AE8";"BRAC2_horiLA_1st300";0;32;615,32499990426;"L";1;0;NA;"L";"black";"blue";"magnit";6;300;1;1;0;0
"3441";"AE8";"BRAC2_horiLA_1st300";0;33;1318,1400001049;"A";1;0;NA;"A";"black";"red";"parity";1;300;1;1;1;0
"3445";"AE8";"BRAC2_horiLA_1st300";0;34;461,859999923036;"L";1;0;NA;"L";"black";"blue";"magnit";6;300;1;1;1;0
"3449";"AE8";"BRAC2_horiLA_1st300";0;35;584,929999895394;"L";1;0;NA;"L";"black";"red";"parity";8;300;1;0;1;0
"3453";"AE8";"BRAC2_horiLA_1st300";0;36;587,064999854192;"A";1;0;NA;"A";"black";"blue";"magnit";3;300;1;1;1;0
"3457";"AE8";"BRAC2_horiLA_1st300";0;37;840,620000148192;"L";1;0;NA;"L";"black";"red";"magnit";8;300;0;1;1;0
"3461";"AE8";"BRAC2_horiLA_1st300";0;38;796,169999986887;"L";1;0;NA;"L";"black";"blue";"parity";6;300;1;0;1;0
"3465";"AE8";"BRAC2_horiLA_1st300";0;39;473,109999904409;"A";1;0;NA;"A";"black";"blue";"parity";3;300;0;1;0;0
"3469";"AE8";"BRAC2_horiLA_1st300";0;40;615,075000096112;"L";1;0;NA;"L";"black";"red";"magnit";6;300;1;1;1;0
"3473";"AE8";"BRAC2_horiLA_1st300";0;41;830,589999910444;"A";1;0;NA;"A";"black";"red";"magnit";3;300;0;1;0;0
"3477";"AE8";"BRAC2_horiLA_1st300";0;42;2500,08500000002;NA;NA;1;1;"L";"black";"blue";"parity";2;300;1;1;1;0
"3481";"AE8";"BRAC2_horiLA_1st300";0;43;1248,60500008799;"L";1;0;NA;"L";"black";"red";"parity";6;300;0;0;1;1
"3485";"AE8";"BRAC2_horiLA_1st300";0;44;1157,45499986224;"A";1;1;NA;"L";"black";"red";"magnit";9;300;1;0;0;0
"3489";"AE8";"BRAC2_horiLA_1st300";0;45;524,100000038743;"L";1;0;NA;"L";"black";"blue";"magnit";7;300;0;0;1;1
"3493";"AE8";"BRAC2_horiLA_1st300";0;46;667,995000025257;"L";1;0;NA;"L";"black";"blue";"magnit";6;300;0;0;0;0
"3497";"AE8";"BRAC2_horiLA_1st300";0;47;544,839999871328;"A";1;0;NA;"A";"black";"blue";"parity";7;300;1;1;0;0
"3501";"AE8";"BRAC2_horiLA_1st300";0;48;938,235000008717;"L";1;0;NA;"L";"black";"red";"parity";2;300;0;1;1;0
"3505";"AE8";"BRAC2_horiLA_1st300";0;49;578,415000112727;"A";1;0;NA;"A";"black";"blue";"magnit";3;300;1;1;1;0
"3509";"AE8";"BRAC2_horiLA_1st300";0;50;598,990000085905;"A";1;0;NA;"A";"black";"red";"magnit";4;300;0;0;1;0
"3513";"AE8";"BRAC2_horiLA_1st300";0;51;688,360000029206;"L";1;0;NA;"L";"black";"red";"magnit";7;300;0;1;0;0
"3517";"AE8";"BRAC2_horiLA_1st300";0;52;472,145000007004;"L";1;0;NA;"L";"black";"red";"parity";2;300;1;0;0;0
"3521";"AE8";"BRAC2_horiLA_1st300";0;53;581,334999995306;"A";1;0;NA;"A";"black";"blue";"parity";7;300;0;1;1;0
"3525";"AE8";"BRAC2_horiLA_1st300";0;54;514,6099999547;"L";1;0;NA;"L";"black";"blue";"parity";4;300;0;1;0;0
"3529";"AE8";"BRAC2_horiLA_1st300";0;55;812,750000040978;"L";1;0;NA;"L";"black";"red";"parity";2;300;0;0;1;0
"3533";"AE8";"BRAC2_horiLA_1st300";0;56;616,33999994956;"A";1;0;NA;"A";"black";"red";"parity";7;300;0;1;0;0
"3537";"AE8";"BRAC2_horiLA_1st300";0;57;590,460000094026;"A";1;0;NA;"A";"black";"blue";"parity";3;300;0;0;1;0
"3541";"AE8";"BRAC2_horiLA_1st300";0;58;513,52999988012;"L";1;0;NA;"L";"black";"blue";"magnit";7;300;1;1;0;0
"3545";"AE8";"BRAC2_horiLA_1st300";0;59;506,430000066757;"A";1;0;NA;"A";"black";"red";"magnit";1;300;0;1;1;0
"3549";"AE8";"BRAC2_horiLA_1st300";0;60;574,69499995932;"L";1;0;NA;"L";"black";"blue";"magnit";7;300;0;1;1;0
"3553";"AE8";"BRAC2_horiLA_1st300";0;61;780,460000038147;"A";1;0;NA;"A";"black";"red";"parity";3;300;1;1;1;0
"3557";"AE8";"BRAC2_horiLA_1st300";0;62;579,820000100881;"A";1;0;NA;"A";"black";"blue";"magnit";1;300;1;0;1;0
"3561";"AE8";"BRAC2_horiLA_1st300";0;63;811,784999910742;"A";1;0;NA;"A";"black";"red";"parity";3;300;1;0;1;0
"3565";"AE8";"BRAC2_horiLA_1st300";0;64;569,935000035912;"A";1;0;NA;"A";"black";"blue";"magnit";4;300;1;0;1;0
"3569";"AE8";"BRAC2_horiLA_1st300";0;65;476,885000010952;"L";1;0;NA;"L";"black";"blue";"magnit";8;300;0;1;0;0
"3573";"AE8";"BRAC2_horiLA_1st300";0;66;683,925000019372;"A";1;0;NA;"A";"black";"red";"parity";9;300;1;1;1;0
"3577";"AE8";"BRAC2_horiLA_1st300";0;67;513,404999859631;"L";1;0;NA;"L";"black";"red";"parity";8;300;0;1;0;0
"3581";"AE8";"BRAC2_horiLA_1st300";0;68;445,095000090078;"A";1;0;NA;"A";"black";"red";"parity";1;300;0;1;0;0
"3585";"AE8";"BRAC2_horiLA_1st300";0;69;458,385000005364;"L";1;0;NA;"L";"black";"red";"magnit";7;300;1;1;0;0
"3589";"AE8";"BRAC2_horiLA_1st300";0;70;728,289999999106;"L";1;0;NA;"L";"black";"blue";"parity";6;300;1;0;1;0
"3593";"AE8";"BRAC2_horiLA_1st300";0;71;446,135000092909;"L";1;0;NA;"L";"black";"blue";"magnit";8;300;1;0;0;0
"3597";"AE8";"BRAC2_horiLA_1st300";0;72;551,710000028834;"A";1;0;NA;"A";"black";"red";"magnit";2;300;0;1;1;0
"3601";"AE8";"BRAC2_horiLA_1st300";0;73;799,179999856278;"A";1;0;NA;"A";"black";"blue";"parity";9;300;1;0;1;0
"3605";"AE8";"BRAC2_horiLA_1st300";0;74;560,780000174418;"A";1;0;NA;"A";"black";"blue";"magnit";1;300;1;0;0;0
"3609";"AE8";"BRAC2_horiLA_1st300";0;75;1022,72999985144;"L";1;0;NA;"L";"black";"red";"parity";4;300;1;1;1;0
"3613";"AE8";"BRAC2_horiLA_1st300";0;76;719,975000014529;"A";1;0;NA;"A";"black";"red";"magnit";2;300;1;1;0;0
"3617";"AE8";"BRAC2_horiLA_1st300";0;77;1783,35500019602;"A";1;0;NA;"A";"black";"blue";"magnit";4;300;0;0;1;0
"3621";"AE8";"BRAC2_horiLA_1st300";0;78;526,29499998875;"L";1;0;NA;"L";"black";"red";"magnit";6;300;0;1;1;0
"3625";"AE8";"BRAC2_horiLA_1st300";0;79;562,410000013188;"L";1;0;NA;"L";"black";"blue";"magnit";8;300;0;0;1;0
"3629";"AE8";"BRAC2_horiLA_1st300";0;80;488,370000151917;"L";1;0;NA;"L";"black";"red";"magnit";6;300;0;0;1;0
"3633";"AE8";"BRAC2_horiLA_1st300";0;81;551,669999957085;"A";1;0;NA;"A";"black";"blue";"parity";1;300;1;1;1;0
"3637";"AE8";"BRAC2_horiLA_1st300";0;82;470,940000144765;"L";1;0;NA;"L";"black";"red";"parity";6;300;0;1;1;0
"3641";"AE8";"BRAC2_horiLA_1st300";0;83;505,020000040531;"A";1;0;NA;"A";"black";"red";"magnit";1;300;1;1;0;0
"3645";"AE8";"BRAC2_horiLA_1st300";0;84;669,775000074878;"A";1;0;NA;"A";"black";"red";"magnit";3;300;0;0;0;0
"3649";"AE8";"BRAC2_horiLA_1st300";0;85;651,270000031218;"L";1;0;NA;"L";"black";"blue";"parity";2;300;1;1;1;0
"3653";"AE8";"BRAC2_horiLA_1st300";0;86;684,68499998562;"A";1;0;NA;"A";"black";"red";"magnit";3;300;1;1;1;0
"3657";"AE8";"BRAC2_horiLA_1st300";0;87;672,484999988228;"A";1;0;NA;"A";"black";"red";"parity";1;300;1;0;0;0
"3661";"AE8";"BRAC2_horiLA_1st300";0;88;476,974999997765;"L";1;0;NA;"L";"black";"red";"magnit";7;300;1;1;0;0
"3665";"AE8";"BRAC2_horiLA_1st300";0;89;461,399999912828;"L";1;0;NA;"L";"black";"red";"magnit";9;300;0;0;0;0
"3669";"AE8";"BRAC2_horiLA_1st300";0;90;537,904999917373;"A";1;0;NA;"A";"black";"red";"parity";3;300;1;1;0;0
"3673";"AE8";"BRAC2_horiLA_1st300";0;91;563,130000140518;"A";1;0;NA;"A";"black";"red";"magnit";1;300;1;0;0;0
"3677";"AE8";"BRAC2_horiLA_1st300";0;92;499,549999833107;"A";1;0;NA;"A";"black";"blue";"magnit";2;300;0;0;1;0
"3681";"AE8";"BRAC2_horiLA_1st300";0;93;555,580000160262;"A";1;0;NA;"A";"black";"blue";"parity";1;300;1;0;0;0
"3685";"AE8";"BRAC2_horiLA_1st300";0;94;453,370000002906;"L";1;0;NA;"L";"black";"blue";"parity";8;300;0;1;0;0
"3689";"AE8";"BRAC2_horiLA_1st300";0;95;405,280000064522;"A";1;0;NA;"A";"black";"blue";"magnit";1;300;1;1;0;0
"3694";"AE8";"BRAC2_horiLA_1st300";1;0;858,504999894649;"A";1;0;NA;"A";"black";"blue";"parity";3;0;99;99;99;99
"3698";"AE8";"BRAC2_horiLA_1st300";1;1;821,375000057742;"A";1;0;NA;"A";"black";"blue";"parity";7;0;0;0;0;0
"3702";"AE8";"BRAC2_horiLA_1st300";1;2;467,420000117272;"L";1;0;NA;"L";"black";"red";"magnit";9;0;1;1;1;0
"3706";"AE8";"BRAC2_horiLA_1st300";1;3;419,689999893308;"L";1;0;NA;"L";"black";"red";"magnit";7;0;0;0;0;0
"3710";"AE8";"BRAC2_horiLA_1st300";1;4;462,234999984503;"A";1;0;NA;"A";"black";"red";"magnit";4;0;0;1;0;0
"3714";"AE8";"BRAC2_horiLA_1st300";1;5;430,270000128075;"L";1;0;NA;"L";"black";"blue";"magnit";8;0;0;1;1;0
"3718";"AE8";"BRAC2_horiLA_1st300";1;6;480,244999984279;"A";1;0;NA;"A";"black";"blue";"magnit";2;0;0;1;0;0
"3722";"AE8";"BRAC2_horiLA_1st300";1;7;611,354999942705;"L";1;0;NA;"L";"black";"blue";"parity";4;0;1;1;0;0
"3726";"AE8";"BRAC2_horiLA_1st300";1;8;1029,48999986984;"L";1;0;NA;"L";"black";"red";"parity";8;0;0;0;1;0
"3730";"AE8";"BRAC2_horiLA_1st300";1;9;700,595000060275;"L";1;1;NA;"A";"black";"blue";"magnit";2;0;1;1;1;0
"3734";"AE8";"BRAC2_horiLA_1st300";1;10;1169,1750001628;"L";1;0;NA;"L";"black";"blue";"parity";6;0;1;1;0;1
"3738";"AE8";"BRAC2_horiLA_1st300";1;11;464,195000007749;"L";1;0;NA;"L";"black";"blue";"parity";4;0;0;0;0;0
"3742";"AE8";"BRAC2_horiLA_1st300";1;12;473,969999933615;"L";1;0;NA;"L";"black";"red";"parity";2;0;0;0;1;0
"3746";"AE8";"BRAC2_horiLA_1st300";1;13;484,914999920875;"A";1;0;NA;"A";"black";"red";"magnit";1;0;1;1;0;0
"3750";"AE8";"BRAC2_horiLA_1st300";1;14;601,395000005141;"L";1;0;NA;"L";"black";"red";"parity";2;0;1;1;0;0
"3754";"AE8";"BRAC2_horiLA_1st300";1;15;607,330000028014;"A";1;0;NA;"A";"black";"red";"magnit";3;0;1;1;0;0
"3758";"AE8";"BRAC2_horiLA_1st300";1;16;637,624999973923;"A";1;0;NA;"A";"black";"blue";"magnit";1;0;0;0;1;0
"3762";"AE8";"BRAC2_horiLA_1st300";1;17;473,340000025928;"L";1;0;NA;"L";"black";"red";"magnit";8;0;0;1;1;0
"3766";"AE8";"BRAC2_horiLA_1st300";1;18;732,464999891818;"L";1;0;NA;"L";"black";"blue";"parity";2;0;1;0;1;0
"3770";"AE8";"BRAC2_horiLA_1st300";1;19;548,280000220984;"L";1;1;NA;"A";"black";"red";"parity";3;0;0;1;1;0
"3774";"AE8";"BRAC2_horiLA_1st300";1;20;584,069999866188;"A";1;0;NA;"A";"black";"red";"magnit";2;0;1;0;0;1
"3778";"AE8";"BRAC2_horiLA_1st300";1;21;763,709999853745;"A";1;0;NA;"A";"black";"blue";"parity";3;0;1;0;1;0
"3782";"AE8";"BRAC2_horiLA_1st300";1;22;608,990000095218;"L";1;0;NA;"L";"black";"blue";"magnit";8;0;1;1;0;0
"3786";"AE8";"BRAC2_horiLA_1st300";1;23;806,164999958128;"A";1;1;NA;"L";"black";"red";"magnit";9;0;0;0;1;0
"3790";"AE8";"BRAC2_horiLA_1st300";1;24;911,115000024438;"L";1;0;NA;"L";"black";"blue";"magnit";7;0;0;0;1;1
"3794";"AE8";"BRAC2_horiLA_1st300";1;25;980,604999931529;"L";1;0;NA;"L";"black";"red";"parity";4;0;1;0;1;0
"3798";"AE8";"BRAC2_horiLA_1st300";1;26;673,650000011548;"L";1;1;NA;"A";"black";"blue";"magnit";2;0;1;1;1;0
"3802";"AE8";"BRAC2_horiLA_1st300";1;27;476,230000145733;"L";1;0;NA;"L";"black";"red";"magnit";6;0;0;1;1;1
"3806";"AE8";"BRAC2_horiLA_1st300";1;28;621,0199999623;"L";1;1;NA;"A";"black";"blue";"magnit";4;0;0;1;1;0
"3810";"AE8";"BRAC2_horiLA_1st300";1;29;664,059999864548;"A";1;0;NA;"A";"black";"red";"magnit";1;0;0;0;1;1
"3814";"AE8";"BRAC2_horiLA_1st300";1;30;884,060000069439;"L";1;0;NA;"L";"black";"blue";"magnit";8;0;0;1;1;0
"3818";"AE8";"BRAC2_horiLA_1st300";1;31;483,524999814108;"L";1;0;NA;"L";"black";"blue";"magnit";6;0;0;0;0;0
"3822";"AE8";"BRAC2_horiLA_1st300";1;32;600,6950000301;"A";1;0;NA;"A";"black";"blue";"magnit";1;0;0;1;0;0
"3826";"AE8";"BRAC2_horiLA_1st300";1;33;761,865000007674;"A";1;0;NA;"A";"black";"red";"magnit";4;0;0;0;1;0
"3830";"AE8";"BRAC2_horiLA_1st300";1;34;487,655000062659;"A";1;0;NA;"A";"black";"blue";"parity";7;0;1;0;1;0
"3834";"AE8";"BRAC2_horiLA_1st300";1;35;593,825000105426;"A";1;0;NA;"A";"black";"blue";"parity";1;0;0;0;0;0
"3838";"AE8";"BRAC2_horiLA_1st300";1;36;497,250000014901;"L";1;0;NA;"L";"black";"red";"magnit";9;0;1;1;1;0
"3842";"AE8";"BRAC2_horiLA_1st300";1;37;575,484999921173;"A";1;0;NA;"A";"black";"red";"magnit";3;0;0;1;0;0
"3846";"AE8";"BRAC2_horiLA_1st300";1;38;1381,53000012971;"A";1;0;NA;"A";"black";"red";"parity";7;0;1;0;0;0
"3850";"AE8";"BRAC2_horiLA_1st300";1;39;1254,72500012256;"A";1;0;NA;"A";"black";"blue";"parity";9;0;0;0;1;0
"3854";"AE8";"BRAC2_horiLA_1st300";1;40;521,835000021383;"L";1;0;NA;"L";"black";"blue";"parity";8;0;0;1;0;0
"3858";"AE8";"BRAC2_horiLA_1st300";1;41;739,01000013575;"A";1;0;NA;"A";"black";"red";"parity";9;0;0;1;1;0
"3862";"AE8";"BRAC2_horiLA_1st300";1;42;878,475000150502;"A";1;0;NA;"A";"black";"blue";"magnit";3;0;1;0;1;0
"3866";"AE8";"BRAC2_horiLA_1st300";1;43;706,114999949932;"L";1;0;NA;"L";"black";"red";"magnit";7;0;0;1;1;0
"3870";"AE8";"BRAC2_horiLA_1st300";1;44;477,075000060722;"A";1;0;NA;"A";"black";"blue";"magnit";1;0;0;1;1;0
"3874";"AE8";"BRAC2_horiLA_1st300";1;45;824,239999987185;"L";1;0;NA;"L";"black";"blue";"parity";2;0;1;1;0;0
"3878";"AE8";"BRAC2_horiLA_1st300";1;46;720,505000092089;"A";1;0;NA;"A";"black";"blue";"magnit";3;0;1;1;0;0
"3882";"AE8";"BRAC2_horiLA_1st300";1;47;764,350000070408;"L";1;0;NA;"L";"black";"blue";"parity";6;0;1;1;0;0
"3886";"AE8";"BRAC2_horiLA_1st300";1;48;1597,09500009194;"L";1;0;NA;"L";"black";"red";"parity";8;0;0;0;1;0
"3890";"AE8";"BRAC2_horiLA_1st300";1;49;575,805000029504;"L";1;0;NA;"L";"black";"blue";"parity";6;0;0;0;1;0
"3894";"AE8";"BRAC2_horiLA_1st300";1;50;469,834999879822;"A";1;0;NA;"A";"black";"blue";"magnit";4;0;1;1;0;0
"3898";"AE8";"BRAC2_horiLA_1st300";1;51;1238,39000007138;"L";1;0;NA;"L";"black";"red";"parity";2;0;1;1;1;0
"3902";"AE8";"BRAC2_horiLA_1st300";1;52;587,189999874681;"L";1;0;NA;"L";"black";"blue";"magnit";9;0;1;0;1;0
"3906";"AE8";"BRAC2_horiLA_1st300";1;53;634,184999857098;"L";1;0;NA;"L";"black";"blue";"parity";8;0;1;0;0;0
"3910";"AE8";"BRAC2_horiLA_1st300";1;54;752,275000093505;"L";1;0;NA;"L";"black";"red";"magnit";6;0;1;0;1;0
"3914";"AE8";"BRAC2_horiLA_1st300";1;55;558,454999933019;"A";1;0;NA;"A";"black";"blue";"parity";3;0;1;1;1;0
"3918";"AE8";"BRAC2_horiLA_1st300";1;56;753,17499996163;"L";1;0;NA;"L";"black";"red";"parity";4;0;0;1;1;0
"3922";"AE8";"BRAC2_horiLA_1st300";1;57;570,575000019744;"L";1;0;NA;"L";"black";"blue";"parity";8;0;0;0;1;0
"3926";"AE8";"BRAC2_horiLA_1st300";1;58;472,680000122637;"L";1;0;NA;"L";"black";"red";"magnit";6;0;1;0;1;0
"3930";"AE8";"BRAC2_horiLA_1st300";1;59;479,319999925792;"L";1;0;NA;"L";"black";"red";"magnit";8;0;0;0;0;0
"3934";"AE8";"BRAC2_horiLA_1st300";1;60;554,759999969974;"L";1;0;NA;"L";"black";"blue";"parity";4;0;1;0;1;0
"3938";"AE8";"BRAC2_horiLA_1st300";1;61;1072,60999991558;"A";1;0;NA;"A";"black";"blue";"parity";7;0;0;1;0;0
"3942";"AE8";"BRAC2_horiLA_1st300";1;62;887,309999903664;"A";1;0;NA;"A";"black";"red";"parity";9;0;0;0;1;0
"3946";"AE8";"BRAC2_horiLA_1st300";1;63;558,304999954998;"L";1;0;NA;"L";"black";"blue";"magnit";6;0;1;1;1;0
"3950";"AE8";"BRAC2_horiLA_1st300";1;64;874,705000082031;"A";1;0;NA;"A";"black";"red";"parity";7;0;1;1;1;0
"3954";"AE8";"BRAC2_horiLA_1st300";1;65;455,739999888465;"L";1;0;NA;"L";"black";"blue";"magnit";9;0;1;1;1;0
"3958";"AE8";"BRAC2_horiLA_1st300";1;66;833,215000107884;"L";1;0;NA;"L";"black";"blue";"parity";2;0;1;0;0;0
"3962";"AE8";"BRAC2_horiLA_1st300";1;67;539,855000097305;"L";1;0;NA;"L";"black";"red";"parity";6;0;0;0;1;0
"3966";"AE8";"BRAC2_horiLA_1st300";1;68;489,804999902844;"L";1;0;NA;"L";"black";"red";"magnit";7;0;1;0;0;0
"3970";"AE8";"BRAC2_horiLA_1st300";1;69;530,245000030845;"A";1;0;NA;"A";"black";"red";"magnit";2;0;0;1;0;0
"3974";"AE8";"BRAC2_horiLA_1st300";1;70;618,269999977201;"A";1;0;NA;"A";"black";"red";"parity";1;0;1;0;0;0
"3978";"AE8";"BRAC2_horiLA_1st300";1;71;668,904999969527;"A";1;0;NA;"A";"black";"red";"parity";9;0;0;0;0;0
"3982";"AE8";"BRAC2_horiLA_1st300";1;72;591,809999896213;"A";1;0;NA;"A";"black";"red";"parity";3;0;0;0;0;0
"3986";"AE8";"BRAC2_horiLA_1st300";1;73;554,37000002712;"A";1;0;NA;"A";"black";"blue";"parity";1;0;0;0;1;0
"3990";"AE8";"BRAC2_horiLA_1st300";1;74;550,405000103638;"A";1;0;NA;"A";"black";"red";"parity";3;0;0;0;1;0
"3994";"AE8";"BRAC2_horiLA_1st300";1;75;516,904999967664;"L";1;0;NA;"L";"black";"red";"parity";8;0;0;1;0;0
"3998";"AE8";"BRAC2_horiLA_1st300";1;76;484,590000007302;"L";1;0;NA;"L";"black";"blue";"magnit";7;0;1;0;1;0
"4002";"AE8";"BRAC2_horiLA_1st300";1;77;717,040000017732;"A";1;0;NA;"A";"black";"blue";"parity";9;0;1;1;0;0
"4006";"AE8";"BRAC2_horiLA_1st300";1;78;474,524999968708;"L";1;0;NA;"L";"black";"red";"magnit";8;0;1;1;1;0
"4010";"AE8";"BRAC2_horiLA_1st300";1;79;895,695000188425;"A";1;0;NA;"A";"black";"red";"parity";7;0;1;1;0;0
"4014";"AE8";"BRAC2_horiLA_1st300";1;80;591,234999941662;"L";1;1;NA;"A";"black";"blue";"magnit";4;0;1;0;1;0
"4018";"AE8";"BRAC2_horiLA_1st300";1;81;609,934999840334;"L";1;0;NA;"L";"black";"red";"parity";6;0;1;1;1;1
"4022";"AE8";"BRAC2_horiLA_1st300";1;82;562,155000166968;"A";1;0;NA;"A";"black";"red";"magnit";1;0;1;1;0;0
"4026";"AE8";"BRAC2_horiLA_1st300";1;83;716,424999991432;"L";1;0;NA;"L";"black";"blue";"magnit";7;0;0;1;1;0
"4030";"AE8";"BRAC2_horiLA_1st300";1;84;491,799999959767;"L";1;0;NA;"L";"black";"blue";"magnit";9;0;0;0;0;0
"4034";"AE8";"BRAC2_horiLA_1st300";1;85;616,930000018328;"A";1;0;NA;"A";"black";"red";"magnit";2;0;0;1;1;0
"4038";"AE8";"BRAC2_horiLA_1st300";1;86;471,98999999091;"A";1;0;NA;"A";"black";"red";"parity";1;0;1;0;0;0
"4042";"AE8";"BRAC2_horiLA_1st300";1;87;556,379999965429;"L";1;0;NA;"L";"black";"red";"parity";6;0;0;1;0;0
"4046";"AE8";"BRAC2_horiLA_1st300";1;88;783,709999872372;"A";1;0;NA;"A";"black";"blue";"magnit";3;0;1;1;1;0
"4050";"AE8";"BRAC2_horiLA_1st300";1;89;1180,94500014558;"L";1;0;NA;"L";"black";"blue";"magnit";6;0;0;1;0;0
"4054";"AE8";"BRAC2_horiLA_1st300";1;90;406,919999979436;"A";1;0;NA;"A";"black";"red";"parity";1;0;1;1;1;0
"4058";"AE8";"BRAC2_horiLA_1st300";1;91;626,359999878332;"A";1;0;NA;"A";"black";"red";"magnit";3;0;1;0;0;0
"4062";"AE8";"BRAC2_horiLA_1st300";1;92;649,014999857172;"L";1;0;NA;"L";"black";"red";"parity";4;0;1;1;0;0
"4066";"AE8";"BRAC2_horiLA_1st300";1;93;552,38000000827;"A";1;0;NA;"A";"black";"blue";"parity";1;0;0;1;1;0
"4070";"AE8";"BRAC2_horiLA_1st300";1;94;455,349999945611;"A";1;0;NA;"A";"black";"red";"magnit";4;0;1;0;1;0
"4074";"AE8";"BRAC2_horiLA_1st300";1;95;1794,89500005729;"A";1;0;NA;"A";"black";"blue";"parity";9;0;1;0;1;0
"4079";"AE8";"BRAC2_horiLA_1st300";2;0;510,250000050291;"A";1;0;NA;"A";"black";"blue";"parity";1;300;99;99;99;99
"4083";"AE8";"BRAC2_horiLA_1st300";2;1;439,710000064224;"A";1;0;NA;"A";"black";"blue";"magnit";4;300;1;0;0;0
"4087";"AE8";"BRAC2_horiLA_1st300";2;2;496,715000132099;"L";1;0;NA;"L";"black";"red";"magnit";9;300;0;1;1;0
"4091";"AE8";"BRAC2_horiLA_1st300";2;3;522,769999923185;"L";1;0;NA;"L";"black";"blue";"magnit";7;300;0;0;1;0
"4095";"AE8";"BRAC2_horiLA_1st300";2;4;606,464999960735;"A";1;0;NA;"A";"black";"blue";"parity";1;300;1;1;0;0
"4099";"AE8";"BRAC2_horiLA_1st300";2;5;710,939999902621;"A";1;0;NA;"A";"black";"red";"parity";9;300;0;0;1;0
"4103";"AE8";"BRAC2_horiLA_1st300";2;6;454,975000116974;"L";1;0;NA;"L";"black";"blue";"parity";6;300;0;1;1;0
"4107";"AE8";"BRAC2_horiLA_1st300";2;7;555,154999950901;"A";1;0;NA;"A";"black";"blue";"parity";7;300;0;1;0;0
"4111";"AE8";"BRAC2_horiLA_1st300";2;8;625,054999953136;"L";1;0;NA;"L";"black";"blue";"parity";2;300;0;1;0;0
"4115";"AE8";"BRAC2_horiLA_1st300";2;9;508,949999930337;"A";1;0;NA;"A";"black";"red";"magnit";4;300;1;1;1;0
"4119";"AE8";"BRAC2_horiLA_1st300";2;10;535,520000150427;"A";1;0;NA;"A";"black";"blue";"magnit";3;300;0;0;1;0
"4123";"AE8";"BRAC2_horiLA_1st300";2;11;511,380000039935;"L";1;0;NA;"L";"black";"blue";"magnit";9;300;0;1;0;0
"4127";"AE8";"BRAC2_horiLA_1st300";2;12;441,970000043511;"A";1;0;NA;"A";"black";"blue";"magnit";3;300;0;1;0;0
"4131";"AE8";"BRAC2_horiLA_1st300";2;13;1477,90000005625;"A";1;0;NA;"A";"black";"blue";"parity";7;300;1;0;0;0
"4135";"AE8";"BRAC2_horiLA_1st300";2;14;464,454999892041;"L";1;0;NA;"L";"black";"blue";"parity";6;300;0;1;0;0
"4139";"AE8";"BRAC2_horiLA_1st300";2;15;530,585000058636;"L";1;0;NA;"L";"black";"blue";"parity";8;300;0;0;0;0
"4143";"AE8";"BRAC2_horiLA_1st300";2;16;691,759999841452;"A";1;0;NA;"A";"black";"blue";"parity";9;300;0;1;0;0
"4147";"AE8";"BRAC2_horiLA_1st300";2;17;435,335000045598;"L";1;0;NA;"L";"black";"red";"magnit";6;300;1;1;1;0
"4151";"AE8";"BRAC2_horiLA_1st300";2;18;683,18000016734;"L";1;0;NA;"L";"black";"red";"parity";2;300;1;0;0;0
"4155";"AE8";"BRAC2_horiLA_1st300";2;19;457,555000204593;"L";1;0;NA;"L";"black";"blue";"parity";8;300;0;0;1;0
"4159";"AE8";"BRAC2_horiLA_1st300";2;20;488,815000047907;"A";1;0;NA;"A";"black";"blue";"magnit";2;300;1;1;0;0
"4163";"AE8";"BRAC2_horiLA_1st300";2;21;617,725000018254;"L";1;0;NA;"L";"black";"red";"parity";6;300;1;1;1;0
"4167";"AE8";"BRAC2_horiLA_1st300";2;22;527,795000001788;"A";1;0;NA;"A";"black";"red";"parity";1;300;0;1;0;0
"4171";"AE8";"BRAC2_horiLA_1st300";2;23;514,704999979585;"A";1;1;NA;"L";"black";"blue";"magnit";7;300;1;1;1;0
"4175";"AE8";"BRAC2_horiLA_1st300";2;24;468,520000111312;"L";1;0;NA;"L";"black";"blue";"parity";4;300;1;0;0;1
"4179";"AE8";"BRAC2_horiLA_1st300";2;25;590,890000108629;"L";1;0;NA;"L";"black";"red";"parity";2;300;0;0;1;0
"4183";"AE8";"BRAC2_horiLA_1st300";2;26;802,10500000976;"L";1;1;NA;"A";"black";"red";"magnit";4;300;1;1;0;0
"4187";"AE8";"BRAC2_horiLA_1st300";2;27;598,035000031814;"L";1;0;NA;"L";"black";"blue";"parity";8;300;1;1;1;1
"4191";"AE8";"BRAC2_horiLA_1st300";2;28;600,480000022799;"L";1;0;NA;"L";"black";"blue";"magnit";6;300;1;0;0;0
"4195";"AE8";"BRAC2_horiLA_1st300";2;29;592,015000060201;"A";1;0;NA;"A";"black";"blue";"magnit";3;300;0;1;0;0
"4199";"AE8";"BRAC2_horiLA_1st300";2;30;487,005000002682;"L";1;0;NA;"L";"black";"red";"parity";6;300;1;1;1;0
"4203";"AE8";"BRAC2_horiLA_1st300";2;31;472,09500009194;"L";1;0;NA;"L";"black";"red";"parity";8;300;0;0;0;0
"4207";"AE8";"BRAC2_horiLA_1st300";2;32;528,410000028089;"L";1;0;NA;"L";"black";"red";"magnit";9;300;1;0;0;0
