"pp";"counterbalance";"blockNum";"trialNum";"rt";"Response";"Attempt";"error";"Timed.Out";"ANSWER";"cuecolor";"framecolor";"task";"stimulus";"cocoa";"Participant.OS";"Participant.Browser";"ppViewportSize";"task_R";"ANSWER_R";"framecolor_R";"error_R"
"5d47d84a4555540001a4ae83";"BRAC2_vertAL_1st300";0;0;2499,261;NA;NA;1;1;"L";"black";"red";"magnit";1;300;"Windows 10";"Chrome 83.0.4103.116";"770x738";99;99;99;99
"5d47d84a4555540001a4ae83";"BRAC2_vertAL_1st300";0;1;1480,00999999931;"A";1;0;NA;"A";"black";"blue";"parity";6;300;"Windows 10";"Chrome 83.0.4103.116";"770x738";1;1;1;1
"5d47d84a4555540001a4ae83";"BRAC2_vertAL_1st300";0;2;1148,55499999248;"L";1;0;NA;"L";"black";"red";"magnit";3;300;"Windows 10";"Chrome 83.0.4103.116";"770x738";1;1;1;0
"5d47d84a4555540001a4ae83";"BRAC2_vertAL_1st300";0;3;2497,73700000001;NA;NA;1;1;"A";"black";"red";"parity";8;300;"Windows 10";"Chrome 83.0.4103.116";"770x738";1;1;0;0
"5d47d84a4555540001a4ae83";"BRAC2_vertAL_1st300";0;4;990,724999996019;"L";1;0;NA;"L";"black";"blue";"parity";1;300;"Windows 10";"Chrome 83.0.4103.116";"770x738";0;1;1;1
"5d47d84a4555540001a4ae83";"BRAC2_vertAL_1st300";0;5;1743,2550000085;"A";1;0;NA;"A";"black";"red";"parity";6;300;"Windows 10";"Chrome 83.0.4103.116";"770x738";0;1;1;0
"5d47d84a4555540001a4ae83";"BRAC2_vertAL_1st300";0;6;1918,15499999211;"A";1;1;NA;"L";"black";"blue";"parity";7;300;"Windows 10";"Chrome 83.0.4103.116";"770x738";0;1;1;0
"5d47d84a4555540001a4ae83";"BRAC2_vertAL_1st300";0;7;2030,04499999224;"A";1;1;NA;"L";"black";"red";"magnit";1;300;"Windows 10";"Chrome 83.0.4103.116";"770x738";1;0;1;1
"5d47d84a4555540001a4ae83";"BRAC2_vertAL_1st300";0;8;834,784999999101;"A";1;0;NA;"A";"black";"red";"magnit";8;300;"Windows 10";"Chrome 83.0.4103.116";"770x738";0;1;0;1
"5d47d84a4555540001a4ae83";"BRAC2_vertAL_1st300";0;9;2194,00499999756;"A";1;1;NA;"L";"black";"blue";"parity";7;300;"Windows 10";"Chrome 83.0.4103.116";"770x738";1;1;1;0
"5d47d84a4555540001a4ae83";"BRAC2_vertAL_1st300";0;10;2490,22000000696;"L";1;0;NA;"L";"black";"red";"parity";3;300;"Windows 10";"Chrome 83.0.4103.116";"770x738";0;0;1;1
"5d47d84a4555540001a4ae83";"BRAC2_vertAL_1st300";0;11;1630,53500000387;"A";1;0;NA;"A";"black";"blue";"magnit";6;300;"Windows 10";"Chrome 83.0.4103.116";"770x738";1;1;1;0
"5d47d84a4555540001a4ae83";"BRAC2_vertAL_1st300";0;12;1760,94000000739;"L";1;0;NA;"L";"black";"red";"parity";3;300;"Windows 10";"Chrome 83.0.4103.116";"770x738";1;1;1;0
"5d47d84a4555540001a4ae83";"BRAC2_vertAL_1st300";0;13;2113,02999999316;"A";1;0;NA;"A";"black";"blue";"magnit";7;300;"Windows 10";"Chrome 83.0.4103.116";"770x738";1;1;1;0
"5d47d84a4555540001a4ae83";"BRAC2_vertAL_1st300";0;14;2380,4550000059;"A";1;1;NA;"L";"black";"blue";"parity";9;300;"Windows 10";"Chrome 83.0.4103.116";"770x738";1;1;0;0
"5d47d84a4555540001a4ae83";"BRAC2_vertAL_1st300";0;15;2073,78999999491;"L";1;1;NA;"A";"black";"blue";"magnit";8;300;"Windows 10";"Chrome 83.0.4103.116";"770x738";1;1;0;1
"5d47d84a4555540001a4ae83";"BRAC2_vertAL_1st300";0;16;1695,56500000181;"A";1;1;NA;"L";"black";"red";"parity";7;300;"Windows 10";"Chrome 83.0.4103.116";"770x738";1;1;1;1
"5d47d84a4555540001a4ae83";"BRAC2_vertAL_1st300";0;17;2499,16100000002;NA;NA;1;1;"L";"black";"blue";"parity";3;300;"Windows 10";"Chrome 83.0.4103.116";"770x738";0;0;1;1
"5d47d84a4555540001a4ae83";"BRAC2_vertAL_1st300";0;18;2499,42200000002;NA;NA;1;1;"L";"black";"blue";"parity";7;300;"Windows 10";"Chrome 83.0.4103.116";"770x738";0;0;0;1
"5d47d84a4555540001a4ae83";"BRAC2_vertAL_1st300";0;19;2038,35000000254;"L";1;0;NA;"L";"black";"blue";"magnit";1;300;"Windows 10";"Chrome 83.0.4103.116";"770x738";1;0;0;1
"5d47d84a4555540001a4ae83";"BRAC2_vertAL_1st300";0;20;2499,50200000001;NA;NA;1;1;"A";"black";"blue";"magnit";9;300;"Windows 10";"Chrome 83.0.4103.116";"770x738";0;1;0;0
"5d47d84a4555540001a4ae83";"BRAC2_vertAL_1st300";0;21;2260,36000000022;"L";1;0;NA;"L";"black";"red";"parity";1;300;"Windows 10";"Chrome 83.0.4103.116";"770x738";1;1;1;1
"5d47d84a4555540001a4ae83";"BRAC2_vertAL_1st300";0;22;1570,21000000532;"A";1;0;NA;"A";"black";"red";"magnit";9;300;"Windows 10";"Chrome 83.0.4103.116";"770x738";1;1;0;0
"5d47d84a4555540001a4ae83";"BRAC2_vertAL_1st300";0;23;963,120000000345;"L";1;0;NA;"L";"black";"blue";"magnit";1;300;"Windows 10";"Chrome 83.0.4103.116";"770x738";0;1;1;0
"5d47d84a4555540001a4ae83";"BRAC2_vertAL_1st300";0;24;535,804999992251;"A";1;0;NA;"A";"black";"blue";"magnit";9;300;"Windows 10";"Chrome 83.0.4103.116";"770x738";0;1;0;0
"5d47d84a4555540001a4ae83";"BRAC2_vertAL_1st300";0;25;1385,33999999345;"A";1;0;NA;"A";"black";"red";"parity";4;300;"Windows 10";"Chrome 83.0.4103.116";"770x738";1;0;1;0
"5d47d84a4555540001a4ae83";"BRAC2_vertAL_1st300";0;26;1542,69499999646;"L";1;0;NA;"L";"black";"red";"parity";1;300;"Windows 10";"Chrome 83.0.4103.116";"770x738";0;1;0;0
"5d47d84a4555540001a4ae83";"BRAC2_vertAL_1st300";0;27;888,514999998733;"A";1;1;NA;"L";"black";"blue";"magnit";2;300;"Windows 10";"Chrome 83.0.4103.116";"770x738";1;0;1;0
"5d47d84a4555540001a4ae83";"BRAC2_vertAL_1st300";0;28;1108,5449999955;"L";1;0;NA;"L";"black";"red";"magnit";3;300;"Windows 10";"Chrome 83.0.4103.116";"770x738";0;0;1;1
"5d47d84a4555540001a4ae83";"BRAC2_vertAL_1st300";0;29;2435,89999999676;"L";1;0;NA;"L";"black";"blue";"parity";9;300;"Windows 10";"Chrome 83.0.4103.116";"770x738";1;0;1;0
"5d47d84a4555540001a4ae83";"BRAC2_vertAL_1st300";0;30;795,899999997346;"A";1;0;NA;"A";"black";"red";"magnit";6;300;"Windows 10";"Chrome 83.0.4103.116";"770x738";1;1;1;0
"5d47d84a4555540001a4ae83";"BRAC2_vertAL_1st300";0;31;2206,34500001324;"L";1;1;NA;"A";"black";"blue";"parity";4;300;"Windows 10";"Chrome 83.0.4103.116";"770x738";1;0;1;0
"5d47d84a4555540001a4ae83";"BRAC2_vertAL_1st300";0;32;2499,37700000001;NA;NA;1;1;"A";"black";"blue";"magnit";9;300;"Windows 10";"Chrome 83.0.4103.116";"770x738";1;0;0;1
"5d47d84a4555540001a4ae83";"BRAC2_vertAL_1st300";0;33;2250,58000000718;"A";1;0;NA;"A";"black";"blue";"parity";8;300;"Windows 10";"Chrome 83.0.4103.116";"770x738";1;0;0;1
"5d47d84a4555540001a4ae83";"BRAC2_vertAL_1st300";0;34;852,49499999918;"A";1;0;NA;"A";"black";"red";"parity";4;300;"Windows 10";"Chrome 83.0.4103.116";"770x738";0;0;1;0
"5d47d84a4555540001a4ae83";"BRAC2_vertAL_1st300";0;35;2010,16499999969;"A";1;0;NA;"A";"black";"blue";"magnit";6;300;"Windows 10";"Chrome 83.0.4103.116";"770x738";1;0;1;0
"5d47d84a4555540001a4ae83";"BRAC2_vertAL_1st300";0;36;1135,88999999047;"A";1;0;NA;"A";"black";"blue";"parity";2;300;"Windows 10";"Chrome 83.0.4103.116";"770x738";1;0;0;0
"5d47d84a4555540001a4ae83";"BRAC2_vertAL_1st300";0;37;1272,29500000249;"A";1;0;NA;"A";"black";"red";"magnit";8;300;"Windows 10";"Chrome 83.0.4103.116";"770x738";1;0;1;0
"5d47d84a4555540001a4ae83";"BRAC2_vertAL_1st300";0;38;2092,47000000323;"L";1;0;NA;"L";"black";"red";"parity";7;300;"Windows 10";"Chrome 83.0.4103.116";"770x738";1;1;0;0
"5d47d84a4555540001a4ae83";"BRAC2_vertAL_1st300";0;39;799,924999999348;"A";1;0;NA;"A";"black";"blue";"parity";6;300;"Windows 10";"Chrome 83.0.4103.116";"770x738";0;1;1;0
"5d47d84a4555540001a4ae83";"BRAC2_vertAL_1st300";0;40;523,325000001932;"L";1;0;NA;"L";"black";"blue";"magnit";4;300;"Windows 10";"Chrome 83.0.4103.116";"770x738";1;1;0;0
"5d47d84a4555540001a4ae83";"BRAC2_vertAL_1st300";0;41;1101,53500000888;"L";1;0;NA;"L";"black";"red";"magnit";3;300;"Windows 10";"Chrome 83.0.4103.116";"770x738";0;0;1;0
"5d47d84a4555540001a4ae83";"BRAC2_vertAL_1st300";0;42;349,85999998753;"A";1;0;NA;"A";"black";"blue";"magnit";8;300;"Windows 10";"Chrome 83.0.4103.116";"770x738";0;1;1;0
"5d47d84a4555540001a4ae83";"BRAC2_vertAL_1st300";0;43;2233,91500000434;"A";1;0;NA;"A";"black";"blue";"parity";4;300;"Windows 10";"Chrome 83.0.4103.116";"770x738";1;0;0;0
"5d47d84a4555540001a4ae83";"BRAC2_vertAL_1st300";0;44;1525,52499999001;"A";1;0;NA;"A";"black";"blue";"magnit";8;300;"Windows 10";"Chrome 83.0.4103.116";"770x738";1;0;0;0
"5d47d84a4555540001a4ae83";"BRAC2_vertAL_1st300";0;45;2499,45500000002;NA;NA;1;1;"A";"black";"blue";"parity";6;300;"Windows 10";"Chrome 83.0.4103.116";"770x738";1;0;0;0
"5d47d84a4555540001a4ae83";"BRAC2_vertAL_1st300";0;46;2499,60999999999;NA;NA;1;1;"L";"black";"red";"parity";9;300;"Windows 10";"Chrome 83.0.4103.116";"770x738";0;1;1;1
"5d47d84a4555540001a4ae83";"BRAC2_vertAL_1st300";0;47;1487,9549999896;"A";1;1;NA;"L";"black";"blue";"parity";3;300;"Windows 10";"Chrome 83.0.4103.116";"770x738";0;0;1;1
"5d47d84a4555540001a4ae83";"BRAC2_vertAL_1st300";0;48;1329,61000000068;"A";1;0;NA;"A";"black";"red";"magnit";6;300;"Windows 10";"Chrome 83.0.4103.116";"770x738";1;1;1;1
"5d47d84a4555540001a4ae83";"BRAC2_vertAL_1st300";0;49;921,570000005886;"L";1;0;NA;"L";"black";"blue";"magnit";4;300;"Windows 10";"Chrome 83.0.4103.116";"770x738";0;1;1;0
"5d47d84a4555540001a4ae83";"BRAC2_vertAL_1st300";0;50;2499,06099999999;NA;NA;1;1;"L";"black";"blue";"parity";1;300;"Windows 10";"Chrome 83.0.4103.116";"770x738";1;0;0;0
"5d47d84a4555540001a4ae83";"BRAC2_vertAL_1st300";0;51;2499,46599999996;NA;NA;1;1;"L";"black";"blue";"magnit";3;300;"Windows 10";"Chrome 83.0.4103.116";"1536x754";1;0;0;1
"5d47d84a4555540001a4ae83";"BRAC2_vertAL_1st300";0;52;1956,34499999869;"L";1;0;NA;"L";"black";"blue";"parity";9;300;"Windows 10";"Chrome 83.0.4103.116";"1536x754";1;0;0;1
"5d47d84a4555540001a4ae83";"BRAC2_vertAL_1st300";0;53;870,994999990216;"L";1;0;NA;"L";"black";"blue";"parity";3;300;"Windows 10";"Chrome 83.0.4103.116";"1536x754";0;0;0;0
"5d47d84a4555540001a4ae83";"BRAC2_vertAL_1st300";0;54;1238,97000000579;"A";1;0;NA;"A";"black";"red";"magnit";7;300;"Windows 10";"Chrome 83.0.4103.116";"1536x754";1;1;1;0
"5d47d84a4555540001a4ae83";"BRAC2_vertAL_1st300";0;55;1054,43499999819;"L";1;0;NA;"L";"black";"red";"parity";3;300;"Windows 10";"Chrome 83.0.4103.116";"1536x754";1;1;0;0
"5d47d84a4555540001a4ae83";"BRAC2_vertAL_1st300";0;56;1455,72500000708;"A";1;1;NA;"L";"black";"blue";"magnit";2;300;"Windows 10";"Chrome 83.0.4103.116";"1536x754";1;0;1;0
"5d47d84a4555540001a4ae83";"BRAC2_vertAL_1st300";0;57;432,215000008;"A";1;1;NA;"L";"black";"blue";"magnit";4;300;"Windows 10";"Chrome 83.0.4103.116";"1536x754";0;0;0;1
"5d47d84a4555540001a4ae83";"BRAC2_vertAL_1st300";0;58;496,209999997518;"L";1;0;NA;"L";"black";"blue";"magnit";2;300;"Windows 10";"Chrome 83.0.4103.116";"1536x754";0;0;0;1
"5d47d84a4555540001a4ae83";"BRAC2_vertAL_1st300";0;59;354,854999997769;"A";1;0;NA;"A";"black";"red";"magnit";8;300;"Windows 10";"Chrome 83.0.4103.116";"1536x754";0;1;1;0
"5d47d84a4555540001a4ae83";"BRAC2_vertAL_1st300";0;60;1327,42999999027;"A";1;0;NA;"A";"black";"blue";"parity";2;300;"Windows 10";"Chrome 83.0.4103.116";"1536x754";1;0;1;0
"5d47d84a4555540001a4ae83";"BRAC2_vertAL_1st300";0;61;659,289999995963;"L";1;0;NA;"L";"black";"red";"magnit";4;300;"Windows 10";"Chrome 83.0.4103.116";"1536x754";1;1;1;0
"5d47d84a4555540001a4ae83";"BRAC2_vertAL_1st300";0;62;500,830000004498;"L";1;0;NA;"L";"black";"blue";"magnit";3;300;"Windows 10";"Chrome 83.0.4103.116";"1536x754";0;0;1;0
"5d47d84a4555540001a4ae83";"BRAC2_vertAL_1st300";0;63;1423,39999999967;"A";1;0;NA;"A";"black";"red";"parity";2;300;"Windows 10";"Chrome 83.0.4103.116";"1536x754";1;1;1;0
"5d47d84a4555540001a4ae83";"BRAC2_vertAL_1st300";0;64;517,459999988205;"A";1;0;NA;"A";"black";"blue";"parity";4;300;"Windows 10";"Chrome 83.0.4103.116";"1536x754";0;0;1;0
"5d47d84a4555540001a4ae83";"BRAC2_vertAL_1st300";0;65;491,370000003371;"A";1;0;NA;"A";"black";"blue";"parity";8;300;"Windows 10";"Chrome 83.0.4103.116";"1536x754";0;0;0;0
"5d47d84a4555540001a4ae83";"BRAC2_vertAL_1st300";0;66;540,320000000065;"L";1;0;NA;"L";"black";"red";"parity";7;300;"Windows 10";"Chrome 83.0.4103.116";"1536x754";0;1;1;0
"5d47d84a4555540001a4ae83";"BRAC2_vertAL_1st300";0;67;491,420000005746;"A";1;0;NA;"A";"black";"red";"parity";8;300;"Windows 10";"Chrome 83.0.4103.116";"1536x754";0;1;0;0
"5d47d84a4555540001a4ae83";"BRAC2_vertAL_1st300";0;68;503,005000005942;"A";1;0;NA;"A";"black";"red";"parity";2;300;"Windows 10";"Chrome 83.0.4103.116";"1536x754";0;0;0;0
"5d47d84a4555540001a4ae83";"BRAC2_vertAL_1st300";0;69;812,805000008666;"L";1;0;NA;"L";"black";"red";"magnit";4;300;"Windows 10";"Chrome 83.0.4103.116";"1536x754";1;1;0;0
"5d47d84a4555540001a4ae83";"BRAC2_vertAL_1st300";0;70;1100,21000000415;"L";1;0;NA;"L";"black";"red";"magnit";2;300;"Windows 10";"Chrome 83.0.4103.116";"1536x754";0;0;0;0
"5d47d84a4555540001a4ae83";"BRAC2_vertAL_1st300";0;71;532,879999998841;"A";1;0;NA;"A";"black";"blue";"magnit";7;300;"Windows 10";"Chrome 83.0.4103.116";"1536x754";0;1;1;0
"5d47d84a4555540001a4ae83";"BRAC2_vertAL_1st300";0;72;867,910000000848;"A";1;0;NA;"A";"black";"blue";"parity";8;300;"Windows 10";"Chrome 83.0.4103.116";"1536x754";1;0;0;0
"5d47d84a4555540001a4ae83";"BRAC2_vertAL_1st300";0;73;436,055000012857;"A";1;0;NA;"A";"black";"red";"parity";4;300;"Windows 10";"Chrome 83.0.4103.116";"1536x754";0;0;1;0
"5d47d84a4555540001a4ae83";"BRAC2_vertAL_1st300";0;74;545,975000000908;"A";1;0;NA;"A";"black";"red";"magnit";9;300;"Windows 10";"Chrome 83.0.4103.116";"1536x754";1;0;0;0
"5d47d84a4555540001a4ae83";"BRAC2_vertAL_1st300";0;75;510,064999994938;"L";1;0;NA;"L";"black";"blue";"magnit";1;300;"Windows 10";"Chrome 83.0.4103.116";"1536x754";0;1;1;0
"5d47d84a4555540001a4ae83";"BRAC2_vertAL_1st300";0;76;757,089999999152;"A";1;0;NA;"A";"black";"red";"magnit";7;300;"Windows 10";"Chrome 83.0.4103.116";"1536x754";0;1;1;0
"5d47d84a4555540001a4ae83";"BRAC2_vertAL_1st300";0;77;458,610000001499;"L";1;0;NA;"L";"black";"red";"magnit";1;300;"Windows 10";"Chrome 83.0.4103.116";"1536x754";0;1;0;0
"5d47d84a4555540001a4ae83";"BRAC2_vertAL_1st300";0;78;471,375000008265;"L";1;0;NA;"L";"black";"red";"magnit";2;300;"Windows 10";"Chrome 83.0.4103.116";"1536x754";0;0;0;0
"5d47d84a4555540001a4ae83";"BRAC2_vertAL_1st300";0;79;913,000000000466;"A";1;0;NA;"A";"black";"red";"parity";6;300;"Windows 10";"Chrome 83.0.4103.116";"1536x754";1;1;0;0
"5d47d84a4555540001a4ae83";"BRAC2_vertAL_1st300";0;80;735,700000004726;"L";1;0;NA;"L";"black";"red";"parity";9;300;"Windows 10";"Chrome 83.0.4103.116";"1536x754";0;1;0;0
"5d47d84a4555540001a4ae83";"BRAC2_vertAL_1st300";0;81;697,190000006231;"L";1;0;NA;"L";"black";"red";"parity";1;300;"Windows 10";"Chrome 83.0.4103.116";"1536x754";0;0;0;0
"5d47d84a4555540001a4ae83";"BRAC2_vertAL_1st300";0;82;600,59000000183;"A";1;0;NA;"A";"black";"red";"parity";6;300;"Windows 10";"Chrome 83.0.4103.116";"1536x754";0;1;0;0
"5d47d84a4555540001a4ae83";"BRAC2_vertAL_1st300";0;83;1361,35999999533;"L";1;1;NA;"A";"black";"blue";"magnit";7;300;"Windows 10";"Chrome 83.0.4103.116";"1536x754";1;0;1;0
"5d47d84a4555540001a4ae83";"BRAC2_vertAL_1st300";0;84;654,080000007525;"A";1;1;NA;"L";"black";"red";"magnit";2;300;"Windows 10";"Chrome 83.0.4103.116";"1536x754";0;1;1;1
"5d47d84a4555540001a4ae83";"BRAC2_vertAL_1st300";0;85;883,709999994608;"L";1;1;NA;"A";"black";"red";"magnit";9;300;"Windows 10";"Chrome 83.0.4103.116";"1536x754";0;1;0;1
"5d47d84a4555540001a4ae83";"BRAC2_vertAL_1st300";0;86;796,530000006896;"A";1;1;NA;"L";"black";"red";"magnit";4;300;"Windows 10";"Chrome 83.0.4103.116";"1536x754";0;1;0;1
"5d47d84a4555540001a4ae83";"BRAC2_vertAL_1st300";0;87;607,004999998026;"L";1;0;NA;"L";"black";"blue";"magnit";3;300;"Windows 10";"Chrome 83.0.4103.116";"1536x754";0;0;1;1
"5d47d84a4555540001a4ae83";"BRAC2_vertAL_1st300";0;88;814,720000009402;"L";1;0;NA;"L";"black";"blue";"parity";1;300;"Windows 10";"Chrome 83.0.4103.116";"1536x754";1;0;0;0
"5d47d84a4555540001a4ae83";"BRAC2_vertAL_1st300";0;89;976,349999997183;"L";1;0;NA;"L";"black";"red";"parity";9;300;"Windows 10";"Chrome 83.0.4103.116";"1536x754";0;0;1;0
"5d47d84a4555540001a4ae83";"BRAC2_vertAL_1st300";0;90;995,015000007697;"A";1;0;NA;"A";"black";"red";"parity";2;300;"Windows 10";"Chrome 83.0.4103.116";"1536x754";0;1;0;0
"5d47d84a4555540001a4ae83";"BRAC2_vertAL_1st300";0;91;1607,67500000657;"A";1;0;NA;"A";"black";"red";"magnit";6;300;"Windows 10";"Chrome 83.0.4103.116";"1536x754";1;0;0;0
"5d47d84a4555540001a4ae83";"BRAC2_vertAL_1st300";0;92;2453,08999999543;"A";1;0;NA;"A";"black";"red";"parity";8;300;"Windows 10";"Chrome 83.0.4103.116";"1536x754";1;0;0;0
"5d47d84a4555540001a4ae83";"BRAC2_vertAL_1st300";0;93;1025,86500000325;"A";1;0;NA;"A";"black";"blue";"parity";2;300;"Windows 10";"Chrome 83.0.4103.116";"1536x754";0;0;1;0
"5d47d84a4555540001a4ae83";"BRAC2_vertAL_1st300";0;94;1094,50500000094;"A";1;0;NA;"A";"black";"blue";"magnit";6;300;"Windows 10";"Chrome 83.0.4103.116";"1536x754";1;0;0;0
"5d47d84a4555540001a4ae83";"BRAC2_vertAL_1st300";0;95;1849,06999999657;"A";1;0;NA;"A";"black";"red";"magnit";7;300;"Windows 10";"Chrome 83.0.4103.116";"1536x754";0;0;1;0
"5d47d84a4555540001a4ae83";"BRAC2_vertAL_1st300";1;0;1552,85999999614;"L";1;0;NA;"L";"black";"blue";"parity";9;0;"Windows 10";"Chrome 83.0.4103.116";"1536x754";99;99;99;99
"5d47d84a4555540001a4ae83";"BRAC2_vertAL_1st300";1;1;561,415000003763;"A";1;0;NA;"A";"black";"blue";"magnit";6;0;"Windows 10";"Chrome 83.0.4103.116";"1536x754";1;1;0;0
"5d47d84a4555540001a4ae83";"BRAC2_vertAL_1st300";1;2;376,900000002934;"L";1;0;NA;"L";"black";"blue";"magnit";4;0;"Windows 10";"Chrome 83.0.4103.116";"1536x754";0;1;0;0
"5d47d84a4555540001a4ae83";"BRAC2_vertAL_1st300";1;3;576,314999998431;"L";1;0;NA;"L";"black";"blue";"parity";7;0;"Windows 10";"Chrome 83.0.4103.116";"1536x754";1;0;0;0
"5d47d84a4555540001a4ae83";"BRAC2_vertAL_1st300";1;4;372,239999996964;"A";1;0;NA;"A";"black";"red";"magnit";6;0;"Windows 10";"Chrome 83.0.4103.116";"1536x754";1;1;1;0
"5d47d84a4555540001a4ae83";"BRAC2_vertAL_1st300";1;5;608,944999999949;"L";1;0;NA;"L";"black";"blue";"magnit";3;0;"Windows 10";"Chrome 83.0.4103.116";"1536x754";0;1;1;0
"5d47d84a4555540001a4ae83";"BRAC2_vertAL_1st300";1;6;388,764999996056;"L";1;0;NA;"L";"black";"red";"magnit";1;0;"Windows 10";"Chrome 83.0.4103.116";"1536x754";0;0;1;0
"5d47d84a4555540001a4ae83";"BRAC2_vertAL_1st300";1;7;491,31500000658;"A";1;0;NA;"A";"black";"blue";"magnit";8;0;"Windows 10";"Chrome 83.0.4103.116";"1536x754";0;1;1;0
"5d47d84a4555540001a4ae83";"BRAC2_vertAL_1st300";1;8;914,809999987483;"A";1;0;NA;"A";"black";"red";"parity";6;0;"Windows 10";"Chrome 83.0.4103.116";"1536x754";1;0;1;0
"5d47d84a4555540001a4ae83";"BRAC2_vertAL_1st300";1;9;399,19500000542;"L";1;0;NA;"L";"black";"blue";"parity";3;0;"Windows 10";"Chrome 83.0.4103.116";"1536x754";0;1;1;0
"5d47d84a4555540001a4ae83";"BRAC2_vertAL_1st300";1;10;392,6300000021;"A";1;0;NA;"A";"black";"red";"parity";6;0;"Windows 10";"Chrome 83.0.4103.116";"1536x754";0;1;1;0
"5d47d84a4555540001a4ae83";"BRAC2_vertAL_1st300";1;11;369,860000006156;"A";1;0;NA;"A";"black";"red";"magnit";9;0;"Windows 10";"Chrome 83.0.4103.116";"1536x754";1;0;0;0
"5d47d84a4555540001a4ae83";"BRAC2_vertAL_1st300";1;12;474,959999992279;"A";1;0;NA;"A";"black";"red";"parity";8;0;"Windows 10";"Chrome 83.0.4103.116";"1536x754";1;0;0;0
"5d47d84a4555540001a4ae83";"BRAC2_vertAL_1st300";1;13;1261,20500000252;"A";1;1;NA;"L";"black";"blue";"magnit";4;0;"Windows 10";"Chrome 83.0.4103.116";"1536x754";1;1;1;0
"5d47d84a4555540001a4ae83";"BRAC2_vertAL_1st300";1;14;433,015000002342;"L";1;0;NA;"L";"black";"blue";"parity";1;0;"Windows 10";"Chrome 83.0.4103.116";"1536x754";1;0;0;1
"5d47d84a4555540001a4ae83";"BRAC2_vertAL_1st300";1;15;1434,89499999851;"L";1;0;NA;"L";"black";"red";"parity";9;0;"Windows 10";"Chrome 83.0.4103.116";"1536x754";0;0;1;0
"5d47d84a4555540001a4ae83";"BRAC2_vertAL_1st300";1;16;479,455000007874;"A";1;0;NA;"A";"black";"red";"parity";4;0;"Windows 10";"Chrome 83.0.4103.116";"1536x754";0;1;0;0
"5d47d84a4555540001a4ae83";"BRAC2_vertAL_1st300";1;17;398,029999996652;"A";1;0;NA;"A";"black";"blue";"magnit";8;0;"Windows 10";"Chrome 83.0.4103.116";"1536x754";1;0;1;0
"5d47d84a4555540001a4ae83";"BRAC2_vertAL_1st300";1;18;1162,85500000231;"L";1;0;NA;"L";"black";"red";"magnit";1;0;"Windows 10";"Chrome 83.0.4103.116";"1536x754";0;1;1;0
"5d47d84a4555540001a4ae83";"BRAC2_vertAL_1st300";1;19;458,13499999349;"A";1;0;NA;"A";"black";"blue";"parity";6;0;"Windows 10";"Chrome 83.0.4103.116";"1536x754";1;1;1;0
"5d47d84a4555540001a4ae83";"BRAC2_vertAL_1st300";1;20;1259,74500000302;"L";1;0;NA;"L";"black";"red";"parity";7;0;"Windows 10";"Chrome 83.0.4103.116";"1536x754";0;1;1;0
"5d47d84a4555540001a4ae83";"BRAC2_vertAL_1st300";1;21;655,960000003688;"L";1;0;NA;"L";"black";"blue";"magnit";3;0;"Windows 10";"Chrome 83.0.4103.116";"1536x754";1;0;1;0
"5d47d84a4555540001a4ae83";"BRAC2_vertAL_1st300";1;22;1024,33000000019;"L";1;0;NA;"L";"black";"blue";"parity";7;0;"Windows 10";"Chrome 83.0.4103.116";"1536x754";1;0;0;0
"5d47d84a4555540001a4ae83";"BRAC2_vertAL_1st300";1;23;1022,81999999832;"A";1;0;NA;"A";"black";"red";"magnit";9;0;"Windows 10";"Chrome 83.0.4103.116";"1536x754";1;1;1;0
"5d47d84a4555540001a4ae83";"BRAC2_vertAL_1st300";1;24;532,970000000205;"A";1;0;NA;"A";"black";"red";"parity";4;0;"Windows 10";"Chrome 83.0.4103.116";"1536x754";1;0;0;0
"5d47d84a4555540001a4ae83";"BRAC2_vertAL_1st300";1;25;429,405000002589;"A";1;0;NA;"A";"black";"blue";"parity";8;0;"Windows 10";"Chrome 83.0.4103.116";"1536x754";0;0;1;0
"5d47d84a4555540001a4ae83";"BRAC2_vertAL_1st300";1;26;391,695000012987;"L";1;0;NA;"L";"black";"red";"parity";1;0;"Windows 10";"Chrome 83.0.4103.116";"1536x754";0;1;1;0
"5d47d84a4555540001a4ae83";"BRAC2_vertAL_1st300";1;27;587,625000000116;"A";1;0;NA;"A";"black";"red";"parity";6;0;"Windows 10";"Chrome 83.0.4103.116";"1536x754";0;1;0;0
"5d47d84a4555540001a4ae83";"BRAC2_vertAL_1st300";1;28;578,129999994417;"L";1;0;NA;"L";"black";"red";"parity";9;0;"Windows 10";"Chrome 83.0.4103.116";"1536x754";0;1;0;0
"5d47d84a4555540001a4ae83";"BRAC2_vertAL_1st300";1;29;476,07999999309;"L";1;0;NA;"L";"black";"blue";"magnit";3;0;"Windows 10";"Chrome 83.0.4103.116";"1536x754";1;0;1;0
"5d47d84a4555540001a4ae83";"BRAC2_vertAL_1st300";1;30;555,729999992764;"A";1;0;NA;"A";"black";"blue";"parity";2;0;"Windows 10";"Chrome 83.0.4103.116";"1536x754";1;1;0;0
"5d47d84a4555540001a4ae83";"BRAC2_vertAL_1st300";1;31;423,8800000021;"L";1;0;NA;"L";"black";"red";"parity";3;0;"Windows 10";"Chrome 83.0.4103.116";"1536x754";0;1;1;0
"5d47d84a4555540001a4ae83";"BRAC2_vertAL_1st300";1;32;414,97499999241;"A";1;0;NA;"A";"black";"blue";"magnit";7;0;"Windows 10";"Chrome 83.0.4103.116";"1536x754";1;1;1;0
"5d47d84a4555540001a4ae83";"BRAC2_vertAL_1st300";1;33;390,744999996969;"A";1;0;NA;"A";"black";"blue";"parity";2;0;"Windows 10";"Chrome 83.0.4103.116";"1536x754";1;0;0;0
"5d47d84a4555540001a4ae83";"BRAC2_vertAL_1st300";1;34;408,510000008391;"A";1;0;NA;"A";"black";"red";"magnit";6;0;"Windows 10";"Chrome 83.0.4103.116";"1536x754";1;0;1;0
"5d47d84a4555540001a4ae83";"BRAC2_vertAL_1st300";1;35;416,465000002063;"L";1;0;NA;"L";"black";"blue";"parity";3;0;"Windows 10";"Chrome 83.0.4103.116";"1536x754";1;1;1;0
"5d47d84a4555540001a4ae83";"BRAC2_vertAL_1st300";1;36;373,674999995274;"A";1;0;NA;"A";"black";"red";"magnit";8;0;"Windows 10";"Chrome 83.0.4103.116";"1536x754";1;1;1;0
"5d47d84a4555540001a4ae83";"BRAC2_vertAL_1st300";1;37;392,964999991818;"A";1;0;NA;"A";"black";"red";"parity";4;0;"Windows 10";"Chrome 83.0.4103.116";"1536x754";1;0;0;0
"5d47d84a4555540001a4ae83";"BRAC2_vertAL_1st300";1;38;306,440000000293;"A";1;0;NA;"A";"black";"red";"parity";2;0;"Windows 10";"Chrome 83.0.4103.116";"1536x754";0;0;0;0
"5d47d84a4555540001a4ae83";"BRAC2_vertAL_1st300";1;39;512,094999998226;"L";1;0;NA;"L";"black";"red";"parity";7;0;"Windows 10";"Chrome 83.0.4103.116";"1536x754";0;1;0;0
"5d47d84a4555540001a4ae83";"BRAC2_vertAL_1st300";1;40;360,744999998133;"L";1;0;NA;"L";"black";"red";"magnit";2;0;"Windows 10";"Chrome 83.0.4103.116";"1536x754";1;0;0;0
"5d47d84a4555540001a4ae83";"BRAC2_vertAL_1st300";1;41;366,405000007944;"A";1;0;NA;"A";"black";"blue";"parity";8;0;"Windows 10";"Chrome 83.0.4103.116";"1536x754";1;1;1;0
"5d47d84a4555540001a4ae83";"BRAC2_vertAL_1st300";1;42;374,255000002449;"A";1;0;NA;"A";"black";"red";"magnit";9;0;"Windows 10";"Chrome 83.0.4103.116";"1536x754";1;0;1;0
"5d47d84a4555540001a4ae83";"BRAC2_vertAL_1st300";1;43;336,515000002692;"A";1;0;NA;"A";"black";"red";"magnit";8;0;"Windows 10";"Chrome 83.0.4103.116";"1536x754";0;0;0;0
"5d47d84a4555540001a4ae83";"BRAC2_vertAL_1st300";1;44;385,510000007343;"A";1;0;NA;"A";"black";"blue";"parity";4;0;"Windows 10";"Chrome 83.0.4103.116";"1536x754";1;0;1;0
"5d47d84a4555540001a4ae83";"BRAC2_vertAL_1st300";1;45;417,939999999362;"L";1;0;NA;"L";"black";"blue";"magnit";1;0;"Windows 10";"Chrome 83.0.4103.116";"1536x754";1;1;0;0
"5d47d84a4555540001a4ae83";"BRAC2_vertAL_1st300";1;46;397,980000008829;"A";1;0;NA;"A";"black";"blue";"magnit";6;0;"Windows 10";"Chrome 83.0.4103.116";"1536x754";0;1;0;0
"5d47d84a4555540001a4ae83";"BRAC2_vertAL_1st300";1;47;391,204999992624;"L";1;0;NA;"L";"black";"blue";"magnit";2;0;"Windows 10";"Chrome 83.0.4103.116";"1536x754";0;1;0;0
"5d47d84a4555540001a4ae83";"BRAC2_vertAL_1st300";1;48;514,450000002398;"A";1;0;NA;"A";"black";"red";"magnit";6;0;"Windows 10";"Chrome 83.0.4103.116";"1536x754";0;1;1;0
"5d47d84a4555540001a4ae83";"BRAC2_vertAL_1st300";1;49;1356,14500001248;"L";1;0;NA;"L";"black";"red";"parity";7;0;"Windows 10";"Chrome 83.0.4103.116";"1536x754";1;1;0;0
"5d47d84a4555540001a4ae83";"BRAC2_vertAL_1st300";1;50;478,060000008554;"A";1;0;NA;"A";"black";"blue";"parity";8;0;"Windows 10";"Chrome 83.0.4103.116";"1536x754";0;1;1;0
"5d47d84a4555540001a4ae83";"BRAC2_vertAL_1st300";1;51;590,425000002142;"L";1;0;NA;"L";"black";"blue";"parity";7;0;"Windows 10";"Chrome 83.0.4103.116";"1536x754";0;1;0;0
"5d47d84a4555540001a4ae83";"BRAC2_vertAL_1st300";1;52;384,470000004512;"A";1;0;NA;"A";"black";"blue";"parity";4;0;"Windows 10";"Chrome 83.0.4103.116";"1536x754";0;1;0;0
"5d47d84a4555540001a4ae83";"BRAC2_vertAL_1st300";1;53;411,834999991697;"A";1;0;NA;"A";"black";"red";"parity";2;0;"Windows 10";"Chrome 83.0.4103.116";"1536x754";0;0;1;0
"5d47d84a4555540001a4ae83";"BRAC2_vertAL_1st300";1;54;1089,7549999936;"A";1;0;NA;"A";"black";"red";"magnit";8;0;"Windows 10";"Chrome 83.0.4103.116";"1536x754";1;0;0;0
"5d47d84a4555540001a4ae83";"BRAC2_vertAL_1st300";1;55;505,315000002156;"L";1;0;NA;"L";"black";"red";"parity";1;0;"Windows 10";"Chrome 83.0.4103.116";"1536x754";1;1;0;0
"5d47d84a4555540001a4ae83";"BRAC2_vertAL_1st300";1;56;440,970000010566;"L";1;0;NA;"L";"black";"blue";"magnit";2;0;"Windows 10";"Chrome 83.0.4103.116";"1536x754";1;0;1;0
"5d47d84a4555540001a4ae83";"BRAC2_vertAL_1st300";1;57;1577,13499999954;"L";1;0;NA;"L";"black";"red";"magnit";4;0;"Windows 10";"Chrome 83.0.4103.116";"1536x754";0;0;1;0
"5d47d84a4555540001a4ae83";"BRAC2_vertAL_1st300";1;58;1264,99000001058;"A";1;0;NA;"A";"black";"blue";"magnit";6;0;"Windows 10";"Chrome 83.0.4103.116";"1536x754";0;1;1;0
"5d47d84a4555540001a4ae83";"BRAC2_vertAL_1st300";1;59;1564,53999999212;"A";1;0;NA;"A";"black";"red";"magnit";7;0;"Windows 10";"Chrome 83.0.4103.116";"1536x754";0;0;1;0
"5d47d84a4555540001a4ae83";"BRAC2_vertAL_1st300";1;60;567,565000004834;"L";1;0;NA;"L";"black";"red";"magnit";4;0;"Windows 10";"Chrome 83.0.4103.116";"1536x754";0;1;0;0
"5d47d84a4555540001a4ae83";"BRAC2_vertAL_1st300";1;61;432,935000004363;"A";1;0;NA;"A";"black";"red";"parity";8;0;"Windows 10";"Chrome 83.0.4103.116";"1536x754";1;1;0;0
"5d47d84a4555540001a4ae83";"BRAC2_vertAL_1st300";1;62;1080,2299999923;"A";1;0;NA;"A";"black";"red";"magnit";7;0;"Windows 10";"Chrome 83.0.4103.116";"1536x754";1;0;0;0
"5d47d84a4555540001a4ae83";"BRAC2_vertAL_1st300";1;63;481,864999994286;"L";1;0;NA;"L";"black";"red";"parity";3;0;"Windows 10";"Chrome 83.0.4103.116";"1536x754";1;1;0;0
"5d47d84a4555540001a4ae83";"BRAC2_vertAL_1st300";1;64;443,270000003395;"L";1;0;NA;"L";"black";"red";"magnit";2;0;"Windows 10";"Chrome 83.0.4103.116";"1536x754";1;0;0;0
"5d47d84a4555540001a4ae83";"BRAC2_vertAL_1st300";1;65;409,15499998664;"A";1;0;NA;"A";"black";"blue";"magnit";9;0;"Windows 10";"Chrome 83.0.4103.116";"1536x754";0;1;1;0
"5d47d84a4555540001a4ae83";"BRAC2_vertAL_1st300";1;66;1003,30000001122;"L";1;0;NA;"L";"black";"red";"magnit";4;0;"Windows 10";"Chrome 83.0.4103.116";"1536x754";0;1;1;0
"5d47d84a4555540001a4ae83";"BRAC2_vertAL_1st300";1;67;1737,40499999258;"L";1;0;NA;"L";"black";"red";"parity";1;0;"Windows 10";"Chrome 83.0.4103.116";"1536x754";1;0;0;0
"5d47d84a4555540001a4ae83";"BRAC2_vertAL_1st300";1;68;802,765000000363;"A";1;0;NA;"A";"black";"red";"parity";8;0;"Windows 10";"Chrome 83.0.4103.116";"1536x754";0;1;0;0
"5d47d84a4555540001a4ae83";"BRAC2_vertAL_1st300";1;69;822,359999991022;"A";1;0;NA;"A";"black";"blue";"magnit";7;0;"Windows 10";"Chrome 83.0.4103.116";"1536x754";1;0;1;0
"5d47d84a4555540001a4ae83";"BRAC2_vertAL_1st300";1;70;939,71999999485;"L";1;0;NA;"L";"black";"red";"magnit";3;0;"Windows 10";"Chrome 83.0.4103.116";"1536x754";0;1;1;0
"5d47d84a4555540001a4ae83";"BRAC2_vertAL_1st300";1;71;904,47999999742;"L";1;0;NA;"L";"black";"red";"parity";9;0;"Windows 10";"Chrome 83.0.4103.116";"1536x754";1;0;0;0
"5d47d84a4555540001a4ae83";"BRAC2_vertAL_1st300";1;72;1654,37499999825;"L";1;0;NA;"L";"black";"blue";"magnit";2;0;"Windows 10";"Chrome 83.0.4103.116";"1536x754";1;0;1;0
"5d47d84a4555540001a4ae83";"BRAC2_vertAL_1st300";1;73;533,265000005485;"L";1;0;NA;"L";"black";"blue";"parity";3;0;"Windows 10";"Chrome 83.0.4103.116";"1536x754";1;0;0;0
"5d47d84a4555540001a4ae83";"BRAC2_vertAL_1st300";1;74;354,124999998021;"A";1;0;NA;"A";"black";"blue";"magnit";8;0;"Windows 10";"Chrome 83.0.4103.116";"1536x754";1;1;0;0
"5d47d84a4555540001a4ae83";"BRAC2_vertAL_1st300";1;75;1119,03499999607;"L";1;0;NA;"L";"black";"red";"magnit";1;0;"Windows 10";"Chrome 83.0.4103.116";"1536x754";0;1;1;0
"5d47d84a4555540001a4ae83";"BRAC2_vertAL_1st300";1;76;439,669999992475;"L";1;0;NA;"L";"black";"red";"parity";3;0;"Windows 10";"Chrome 83.0.4103.116";"1536x754";1;0;0;0
"5d47d84a4555540001a4ae83";"BRAC2_vertAL_1st300";1;77;423,900000008871;"L";1;0;NA;"L";"black";"blue";"magnit";1;0;"Windows 10";"Chrome 83.0.4103.116";"1536x754";1;0;1;0
"5d47d84a4555540001a4ae83";"BRAC2_vertAL_1st300";1;78;297,034999995958;"A";1;0;NA;"A";"black";"red";"magnit";7;0;"Windows 10";"Chrome 83.0.4103.116";"1536x754";0;1;1;0
"5d47d84a4555540001a4ae83";"BRAC2_vertAL_1st300";1;79;420,975000000908;"L";1;0;NA;"L";"black";"red";"magnit";2;0;"Windows 10";"Chrome 83.0.4103.116";"1536x754";0;1;0;0
"5d47d84a4555540001a4ae83";"BRAC2_vertAL_1st300";1;80;503,130000011879;"L";1;0;NA;"L";"black";"blue";"magnit";4;0;"Windows 10";"Chrome 83.0.4103.116";"1536x754";0;0;1;0
"5d47d84a4555540001a4ae83";"BRAC2_vertAL_1st300";1;81;382,21500000509;"A";1;0;NA;"A";"black";"blue";"magnit";9;0;"Windows 10";"Chrome 83.0.4103.116";"1536x754";0;1;0;0
"5d47d84a4555540001a4ae83";"BRAC2_vertAL_1st300";1;82;374,084999988554;"L";1;0;NA;"L";"black";"red";"magnit";3;0;"Windows 10";"Chrome 83.0.4103.116";"1536x754";0;1;1;0
"5d47d84a4555540001a4ae83";"BRAC2_vertAL_1st300";1;83;444,505000006757;"A";1;0;NA;"A";"black";"red";"parity";2;0;"Windows 10";"Chrome 83.0.4103.116";"1536x754";1;1;0;0
"5d47d84a4555540001a4ae83";"BRAC2_vertAL_1st300";1;84;357,915000000503;"L";1;0;NA;"L";"black";"blue";"parity";1;0;"Windows 10";"Chrome 83.0.4103.116";"1536x754";0;1;1;0
"5d47d84a4555540001a4ae83";"BRAC2_vertAL_1st300";1;85;381,22999999905;"A";1;0;NA;"A";"black";"blue";"parity";4;0;"Windows 10";"Chrome 83.0.4103.116";"1536x754";0;1;0;0
"5d47d84a4555540001a4ae83";"BRAC2_vertAL_1st300";1;86;369,979999988573;"A";1;0;NA;"A";"black";"blue";"parity";2;0;"Windows 10";"Chrome 83.0.4103.116";"1536x754";0;0;0;0
"5d47d84a4555540001a4ae83";"BRAC2_vertAL_1st300";1;87;458,030000008876;"L";1;0;NA;"L";"black";"blue";"magnit";1;0;"Windows 10";"Chrome 83.0.4103.116";"1536x754";1;1;0;0
"5d47d84a4555540001a4ae83";"BRAC2_vertAL_1st300";1;88;382,394999993267;"A";1;0;NA;"A";"black";"blue";"magnit";7;0;"Windows 10";"Chrome 83.0.4103.116";"1536x754";0;1;0;0
"5d47d84a4555540001a4ae83";"BRAC2_vertAL_1st300";1;89;607,755000004545;"L";1;0;NA;"L";"black";"blue";"parity";9;0;"Windows 10";"Chrome 83.0.4103.116";"1536x754";1;1;0;0
"5d47d84a4555540001a4ae83";"BRAC2_vertAL_1st300";1;90;501,069999998435;"L";1;0;NA;"L";"black";"blue";"parity";1;0;"Windows 10";"Chrome 83.0.4103.116";"1536x754";0;0;0;0
"5d47d84a4555540001a4ae83";"BRAC2_vertAL_1st300";1;91;661,31999999925;"A";1;0;NA;"A";"black";"blue";"parity";6;0;"Windows 10";"Chrome 83.0.4103.116";"1536x754";0;1;0;0
"5d47d84a4555540001a4ae83";"BRAC2_vertAL_1st300";1;92;508,540000009816;"L";1;0;NA;"L";"black";"blue";"parity";9;0;"Windows 10";"Chrome 83.0.4103.116";"1536x754";0;1;0;0
"5d47d84a4555540001a4ae83";"BRAC2_vertAL_1st300";1;93;467,975000006845;"A";1;0;NA;"A";"black";"blue";"parity";6;0;"Windows 10";"Chrome 83.0.4103.116";"1536x754";0;1;0;0
"5d47d84a4555540001a4ae83";"BRAC2_vertAL_1st300";1;94;928,375000003143;"L";1;0;NA;"L";"black";"red";"magnit";3;0;"Windows 10";"Chrome 83.0.4103.116";"1536x754";1;1;1;0
"5d47d84a4555540001a4ae83";"BRAC2_vertAL_1st300";1;95;1076,58999999694;"A";1;0;NA;"A";"black";"blue";"magnit";9;0;"Windows 10";"Chrome 83.0.4103.116";"1536x754";0;1;1;0
"5d47d84a4555540001a4ae83";"BRAC2_vertAL_1st300";2;0;436,100000006147;"A";1;0;NA;"A";"black";"blue";"magnit";9;300;"Windows 10";"Chrome 83.0.4103.116";"1536x754";99;99;99;99
"5d47d84a4555540001a4ae83";"BRAC2_vertAL_1st300";2;1;540,510000006063;"L";1;0;NA;"L";"black";"red";"magnit";1;300;"Windows 10";"Chrome 83.0.4103.116";"1536x754";0;1;1;0
"5d47d84a4555540001a4ae83";"BRAC2_vertAL_1st300";2;2;561,619999993127;"A";1;0;NA;"A";"black";"red";"magnit";7;300;"Windows 10";"Chrome 83.0.4103.116";"1536x754";0;1;0;0
"5d47d84a4555540001a4ae83";"BRAC2_vertAL_1st300";2;3;374,55500000203;"L";1;0;NA;"L";"black";"blue";"magnit";2;300;"Windows 10";"Chrome 83.0.4103.116";"1536x754";0;1;1;0
"5d47d84a4555540001a4ae83";"BRAC2_vertAL_1st300";2;4;424,930000008084;"L";1;0;NA;"L";"black";"blue";"parity";1;300;"Windows 10";"Chrome 83.0.4103.116";"1536x754";1;0;0;0
"5d47d84a4555540001a4ae83";"BRAC2_vertAL_1st300";2;5;552,76500000013;"L";1;0;NA;"L";"black";"red";"parity";9;300;"Windows 10";"Chrome 83.0.4103.116";"1536x754";0;0;1;0
"5d47d84a4555540001a4ae83";"BRAC2_vertAL_1st300";2;6;859,394999992102;"L";1;0;NA;"L";"black";"blue";"magnit";4;300;"Windows 10";"Chrome 83.0.4103.116";"1536x754";1;0;1;0
"5d47d84a4555540001a4ae83";"BRAC2_vertAL_1st300";2;7;593,02500000922;"L";1;0;NA;"L";"black";"red";"magnit";2;300;"Windows 10";"Chrome 83.0.4103.116";"1536x754";0;0;1;0
"5d47d84a4555540001a4ae83";"BRAC2_vertAL_1st300";2;8;499,425000001676;"A";1;0;NA;"A";"black";"red";"magnit";8;300;"Windows 10";"Chrome 83.0.4103.116";"1536x754";0;1;0;0
"5d47d84a4555540001a4ae83";"BRAC2_vertAL_1st300";2;9;541,265000007115;"L";1;0;NA;"L";"black";"blue";"magnit";4;300;"Windows 10";"Chrome 83.0.4103.116";"1536x754";0;1;1;0
"5d47d84a4555540001a4ae83";"BRAC2_vertAL_1st300";2;10;378,470000010682;"L";1;0;NA;"L";"black";"blue";"magnit";2;300;"Windows 10";"Chrome 83.0.4103.116";"1536x754";0;0;0;0
"5d47d84a4555540001a4ae83";"BRAC2_vertAL_1st300";2;11;405,044999992242;"L";1;0;NA;"L";"black";"red";"magnit";4;300;"Windows 10";"Chrome 83.0.4103.116";"1536x754";0;0;1;0
"5d47d84a4555540001a4ae83";"BRAC2_vertAL_1st300";2;12;350,030000001425;"L";1;0;NA;"L";"black";"red";"magnit";2;300;"Windows 10";"Chrome 83.0.4103.116";"1536x754";0;0;0;0
"5d47d84a4555540001a4ae83";"BRAC2_vertAL_1st300";2;13;1070,02500000806;"L";1;1;NA;"A";"black";"blue";"parity";4;300;"Windows 10";"Chrome 83.0.4103.116";"1536x754";1;1;1;0
"5d47d84a4555540001a4ae83";"BRAC2_vertAL_1st300";2;14;1003,53000000166;"L";1;0;NA;"L";"black";"blue";"magnit";1;300;"Windows 10";"Chrome 83.0.4103.116";"1536x754";1;1;0;1
"5d47d84a4555540001a4ae83";"BRAC2_vertAL_1st300";2;15;422,400000010384;"A";1;0;NA;"A";"black";"blue";"parity";6;300;"Windows 10";"Chrome 83.0.4103.116";"1536x754";1;1;0;0
"5d47d84a4555540001a4ae83";"BRAC2_vertAL_1st300";2;16;1804,19999999879;"L";1;0;NA;"L";"black";"blue";"parity";3;300;"Windows 10";"Chrome 83.0.4103.116";"1536x754";0;1;0;0
"5d47d84a4555540001a4ae83";"BRAC2_vertAL_1st300";2;17;316,904999999795;"A";1;0;NA;"A";"black";"blue";"magnit";9;300;"Windows 10";"Chrome 83.0.4103.116";"1536x754";1;1;0;0
"5d47d84a4555540001a4ae83";"BRAC2_vertAL_1st300";2;18;494,279999998864;"L";1;0;NA;"L";"black";"red";"parity";3;300;"Windows 10";"Chrome 83.0.4103.116";"1536x754";1;1;1;0
"5d47d84a4555540001a4ae83";"BRAC2_vertAL_1st300";2;19;1053,12000001129;"A";1;0;NA;"A";"black";"blue";"parity";6;300;"Windows 10";"Chrome 83.0.4103.116";"1536x754";0;1;1;0
"5d47d84a4555540001a4ae83";"BRAC2_vertAL_1st300";2;20;564,635000002338;"L";1;0;NA;"L";"black";"blue";"parity";3;300;"Windows 10";"Chrome 83.0.4103.116";"1536x754";0;1;0;0
"5d47d84a4555540001a4ae83";"BRAC2_vertAL_1st300";2;21;567,674999998417;"L";1;0;NA;"L";"black";"red";"parity";1;300;"Windows 10";"Chrome 83.0.4103.116";"1536x754";0;0;1;0
"5d47d84a4555540001a4ae83";"BRAC2_vertAL_1st300";2;22;409,815000006463;"L";1;0;NA;"L";"black";"red";"magnit";3;300;"Windows 10";"Chrome 83.0.4103.116";"1536x754";1;0;0;0
"5d47d84a4555540001a4ae83";"BRAC2_vertAL_1st300";2;23;434,150000000838;"A";1;0;NA;"A";"black";"red";"magnit";6;300;"Windows 10";"Chrome 83.0.4103.116";"1536x754";0;1;0;0
"5d47d84a4555540001a4ae83";"BRAC2_vertAL_1st300";2;24;583,870000002207;"A";1;0;NA;"A";"black";"blue";"parity";2;300;"Windows 10";"Chrome 83.0.4103.116";"1536x754";1;0;1;0
"5d47d84a4555540001a4ae83";"BRAC2_vertAL_1st300";2;25;458,729999998584;"A";1;0;NA;"A";"black";"red";"parity";4;300;"Windows 10";"Chrome 83.0.4103.116";"1536x754";0;0;1;0
"5d47d84a4555540001a4ae83";"BRAC2_vertAL_1st300";2;26;455,040000000736;"A";1;0;NA;"A";"black";"red";"parity";8;300;"Windows 10";"Chrome 83.0.4103.116";"1536x754";0;0;0;0
"5d47d84a4555540001a4ae83";"BRAC2_vertAL_1st300";2;27;365,774999998277;"L";1;0;NA;"L";"black";"blue";"parity";3;300;"Windows 10";"Chrome 83.0.4103.116";"1536x754";0;1;1;0
"5d47d84a4555540001a4ae83";"BRAC2_vertAL_1st300";2;28;422,930000000633;"A";1;0;NA;"A";"black";"blue";"parity";2;300;"Windows 10";"Chrome 83.0.4103.116";"1536x754";0;1;0;0
"5d47d84a4555540001a4ae83";"BRAC2_vertAL_1st300";2;29;383,740000004647;"A";1;0;NA;"A";"black";"red";"parity";4;300;"Windows 10";"Chrome 83.0.4103.116";"1536x754";0;0;1;0
"5d47d84a4555540001a4ae83";"BRAC2_vertAL_1st300";2;30;374,635000000242;"L";1;0;NA;"L";"black";"red";"parity";7;300;"Windows 10";"Chrome 83.0.4103.116";"1536x754";0;1;0;0
"5d47d84a4555540001a4ae83";"BRAC2_vertAL_1st300";2;31;446,865000005346;"L";1;0;NA;"L";"black";"blue";"magnit";4;300;"Windows 10";"Chrome 83.0.4103.116";"1536x754";1;0;1;0
"5d47d84a4555540001a4ae83";"BRAC2_vertAL_1st300";2;32;393,110000004526;"L";1;0;NA;"L";"black";"blue";"parity";7;300;"Windows 10";"Chrome 83.0.4103.116";"1536x754";1;0;0;0
"5d47d84a4555540001a4ae83";"BRAC2_vertAL_1st300";2;33;388,265000001295;"L";1;0;NA;"L";"black";"blue";"magnit";2;300;"Windows 10";"Chrome 83.0.4103.116";"1536x754";1;0;0;0
"5d47d84a4555540001a4ae83";"BRAC2_vertAL_1st300";2;34;460,720000002766;"L";1;0;NA;"L";"black";"blue";"parity";7;300;"Windows 10";"Chrome 83.0.4103.116";"1536x754";1;0;0;0
"5d47d84a4555540001a4ae83";"BRAC2_vertAL_1st300";2;35;692,184999992605;"A";1;0;NA;"A";"black";"blue";"parity";8;300;"Windows 10";"Chrome 83.0.4103.116";"1536x754";0;1;0;0
"5d47d84a4555540001a4ae83";"BRAC2_vertAL_1st300";2;36;468,840000001481;"L";1;0;NA;"L";"black";"blue";"parity";9;300;"Windows 10";"Chrome 83.0.4103.116";"1536x754";0;1;0;0
"5d47d84a4555540001a4ae83";"BRAC2_vertAL_1st300";2;37;606,094999995548;"A";1;0;NA;"A";"black";"blue";"parity";8;300;"Windows 10";"Chrome 83.0.4103.116";"1536x754";0;1;0;0
"5d47d84a4555540001a4ae83";"BRAC2_vertAL_1st300";2;38;437,764999995008;"A";1;0;NA;"A";"black";"red";"parity";2;300;"Windows 10";"Chrome 83.0.4103.116";"1536x754";0;0;1;0
"5d47d84a4555540001a4ae83";"BRAC2_vertAL_1st300";2;39;351,045000002952;"L";1;0;NA;"L";"black";"red";"parity";3;300;"Windows 10";"Chrome 83.0.4103.116";"1536x754";0;1;0;0
"5d47d84a4555540001a4ae83";"BRAC2_vertAL_1st300";2;40;340,234999996144;"L";1;0;NA;"L";"black";"blue";"magnit";1;300;"Windows 10";"Chrome 83.0.4103.116";"1536x754";1;0;1;0
"5d47d84a4555540001a4ae83";"BRAC2_vertAL_1st300";2;41;349,97999999905;"A";1;0;NA;"A";"black";"red";"magnit";7;300;"Windows 10";"Chrome 83.0.4103.116";"1536x754";0;1;1;0
"5d47d84a4555540001a4ae83";"BRAC2_vertAL_1st300";2;42;948,424999994924;"A";1;0;NA;"A";"black";"red";"parity";6;300;"Windows 10";"Chrome 83.0.4103.116";"1536x754";1;0;0;0
"5d47d84a4555540001a4ae83";"BRAC2_vertAL_1st300";2;43;387,674999990966;"A";1;0;NA;"A";"black";"red";"parity";8;300;"Windows 10";"Chrome 83.0.4103.116";"1536x754";0;0;0;0
"5d47d84a4555540001a4ae83";"BRAC2_vertAL_1st300";2;44;334,419999999227;"A";1;0;NA;"A";"black";"blue";"magnit";6;300;"Windows 10";"Chrome 83.0.4103.116";"1536x754";1;0;1;0
"5d47d84a4555540001a4ae83";"BRAC2_vertAL_1st300";2;45;385,200000004144;"A";1;1;NA;"L";"black";"red";"parity";9;300;"Windows 10";"Chrome 83.0.4103.116";"1536x754";1;1;1;0
"5d47d84a4555540001a4ae83";"BRAC2_vertAL_1st300";2;46;750,679999997374;"L";1;0;NA;"L";"black";"red";"magnit";3;300;"Windows 10";"Chrome 83.0.4103.116";"1536x754";1;0;0;1
"5d47d84a4555540001a4ae83";"BRAC2_vertAL_1st300";2;47;457,939999992959;"L";1;0;NA;"L";"black";"blue";"parity";9;300;"Windows 10";"Chrome 83.0.4103.116";"1536x754";1;0;1;0
"5d47d84a4555540001a4ae83";"BRAC2_vertAL_1st300";2;48;757,045000005979;"A";1;0;NA;"A";"black";"red";"parity";2;300;"Windows 10";"Chrome 83.0.4103.116";"1536x754";0;1;1;0
"5d47d84a4555540001a4ae83";"BRAC2_vertAL_1st300";2;49;461,149999988265;"L";1;0;NA;"L";"black";"red";"parity";3;300;"Windows 10";"Chrome 83.0.4103.116";"1536x754";0;1;0;0
"5d47d84a4555540001a4ae83";"BRAC2_vertAL_1st300";2;50;470,300000000978;"L";1;0;NA;"L";"black";"blue";"parity";9;300;"Windows 10";"Chrome 83.0.4103.116";"1536x754";0;0;1;0
"5d47d84a4555540001a4ae83";"BRAC2_vertAL_1st300";2;51;425,504999991972;"A";1;0;NA;"A";"black";"red";"magnit";7;300;"Windows 10";"Chrome 83.0.4103.116";"1536x754";1;1;1;0
"5d47d84a4555540001a4ae83";"BRAC2_vertAL_1st300";2;52;497,684999994701;"L";1;0;NA;"L";"black";"red";"magnit";4;300;"Windows 10";"Chrome 83.0.4103.116";"1536x754";0;1;0;0
"5d47d84a4555540001a4ae83";"BRAC2_vertAL_1st300";2;53;404,154999996535;"L";1;0;NA;"L";"black";"red";"parity";7;300;"Windows 10";"Chrome 83.0.4103.116";"1536x754";1;0;0;0
"5d47d84a4555540001a4ae83";"BRAC2_vertAL_1st300";2;54;479,399999996414;"A";1;0;NA;"A";"black";"red";"magnit";6;300;"Windows 10";"Chrome 83.0.4103.116";"1536x754";1;1;0;0
"5d47d84a4555540001a4ae83";"BRAC2_vertAL_1st300";2;55;1139,29500000086;"A";1;0;NA;"A";"black";"red";"magnit";9;300;"Windows 10";"Chrome 83.0.4103.116";"1536x754";0;0;0;0
"5d47d84a4555540001a4ae83";"BRAC2_vertAL_1st300";2;56;1195,0849999995;"A";1;0;NA;"A";"black";"red";"magnit";8;300;"Windows 10";"Chrome 83.0.4103.116";"1536x754";0;0;0;0
"5d47d84a4555540001a4ae83";"BRAC2_vertAL_1st300";2;57;352,834999997867;"A";1;0;NA;"A";"black";"blue";"magnit";6;300;"Windows 10";"Chrome 83.0.4103.116";"1536x754";0;0;1;0
"5d47d84a4555540001a4ae83";"BRAC2_vertAL_1st300";2;58;393,064999996684;"L";1;0;NA;"L";"black";"blue";"magnit";1;300;"Windows 10";"Chrome 83.0.4103.116";"1536x754";0;1;0;0
"5d47d84a4555540001a4ae83";"BRAC2_vertAL_1st300";2;59;388,105000005569;"A";1;0;NA;"A";"black";"red";"magnit";6;300;"Windows 10";"Chrome 83.0.4103.116";"1536x754";0;1;1;0
"5d47d84a4555540001a4ae83";"BRAC2_vertAL_1st300";2;60;474,775000009686;"A";1;0;NA;"A";"black";"red";"parity";2;300;"Windows 10";"Chrome 83.0.4103.116";"1536x754";1;0;0;0
"5d47d84a4555540001a4ae83";"BRAC2_vertAL_1st300";2;61;502,945000000298;"A";1;0;NA;"A";"black";"blue";"parity";4;300;"Windows 10";"Chrome 83.0.4103.116";"1536x754";0;0;1;0
"5d47d84a4555540001a4ae83";"BRAC2_vertAL_1st300";2;62;487,525000004098;"A";1;0;NA;"A";"black";"blue";"magnit";9;300;"Windows 10";"Chrome 83.0.4103.116";"1536x754";1;0;0;0
"5d47d84a4555540001a4ae83";"BRAC2_vertAL_1st300";2;63;488,929999992251;"A";1;0;NA;"A";"black";"blue";"parity";2;300;"Windows 10";"Chrome 83.0.4103.116";"1536x754";1;0;0;0
"5d47d84a4555540001a4ae83";"BRAC2_vertAL_1st300";2;64;463,350000005681;"L";1;0;NA;"L";"black";"blue";"magnit";3;300;"Windows 10";"Chrome 83.0.4103.116";"1536x754";1;1;0;0
"5d47d84a4555540001a4ae83";"BRAC2_vertAL_1st300";2;65;436,025000002701;"A";1;0;NA;"A";"black";"red";"magnit";9;300;"Windows 10";"Chrome 83.0.4103.116";"1536x754";0;1;1;0
"5d47d84a4555540001a4ae83";"BRAC2_vertAL_1st300";2;66;705,995000011288;"A";1;0;NA;"A";"black";"blue";"parity";4;300;"Windows 10";"Chrome 83.0.4103.116";"1536x754";1;0;1;0
"5d47d84a4555540001a4ae83";"BRAC2_vertAL_1st300";2;67;466,585000002058;"A";1;0;NA;"A";"black";"red";"magnit";8;300;"Windows 10";"Chrome 83.0.4103.116";"1536x754";1;0;1;0
"5d47d84a4555540001a4ae83";"BRAC2_vertAL_1st300";2;68;570,22999999742;"L";1;0;NA;"L";"black";"blue";"parity";7;300;"Windows 10";"Chrome 83.0.4103.116";"1536x754";1;1;1;0
"5d47d84a4555540001a4ae83";"BRAC2_vertAL_1st300";2;69;349,199999996927;"L";1;0;NA;"L";"black";"red";"magnit";4;300;"Windows 10";"Chrome 83.0.4103.116";"1536x754";1;0;1;0
"5d47d84a4555540001a4ae83";"BRAC2_vertAL_1st300";2;70;923,234999994747;"A";1;0;NA;"A";"black";"blue";"magnit";7;300;"Windows 10";"Chrome 83.0.4103.116";"1536x754";0;1;1;0
"5d47d84a4555540001a4ae83";"BRAC2_vertAL_1st300";2;71;992,219999999972;"A";1;0;NA;"A";"black";"red";"magnit";9;300;"Windows 10";"Chrome 83.0.4103.116";"1536x754";0;0;1;0
"5d47d84a4555540001a4ae83";"BRAC2_vertAL_1st300";2;72;808,754999990808;"A";1;0;NA;"A";"black";"blue";"parity";6;300;"Windows 10";"Chrome 83.0.4103.116";"1536x754";1;0;1;0
"5d47d84a4555540001a4ae83";"BRAC2_vertAL_1st300";2;73;420,115000000922;"A";1;0;NA;"A";"black";"blue";"magnit";8;300;"Windows 10";"Chrome 83.0.4103.116";"1536x754";1;0;0;0
"5d47d84a4555540001a4ae83";"BRAC2_vertAL_1st300";2;74;400,800000003073;"L";1;0;NA;"L";"black";"red";"parity";7;300;"Windows 10";"Chrome 83.0.4103.116";"1536x754";1;1;1;0
"5d47d84a4555540001a4ae83";"BRAC2_vertAL_1st300";2;75;337,230000004638;"A";1;0;NA;"A";"black";"blue";"magnit";6;300;"Windows 10";"Chrome 83.0.4103.116";"1536x754";1;1;1;0
"5d47d84a4555540001a4ae83";"BRAC2_vertAL_1st300";2;76;420,165000003297;"A";1;0;NA;"A";"black";"blue";"parity";8;300;"Windows 10";"Chrome 83.0.4103.116";"1536x754";1;0;0;0
"5d47d84a4555540001a4ae83";"BRAC2_vertAL_1st300";2;77;398,109999994515;"A";1;0;NA;"A";"black";"red";"parity";6;300;"Windows 10";"Chrome 83.0.4103.116";"1536x754";0;0;1;0
"5d47d84a4555540001a4ae83";"BRAC2_vertAL_1st300";2;78;368,049999990035;"A";1;0;NA;"A";"black";"blue";"magnit";7;300;"Windows 10";"Chrome 83.0.4103.116";"1536x754";1;0;1;0
"5d47d84a4555540001a4ae83";"BRAC2_vertAL_1st300";2;79;335,770000005141;"L";1;0;NA;"L";"black";"red";"parity";1;300;"Windows 10";"Chrome 83.0.4103.116";"1536x754";1;1;1;0
"5d47d84a4555540001a4ae83";"BRAC2_vertAL_1st300";2;80;386,929999993183;"L";1;0;NA;"L";"black";"blue";"magnit";3;300;"Windows 10";"Chrome 83.0.4103.116";"1536x754";1;0;1;0
"5d47d84a4555540001a4ae83";"BRAC2_vertAL_1st300";2;81;331,420000002254;"A";1;0;NA;"A";"black";"blue";"magnit";8;300;"Windows 10";"Chrome 83.0.4103.116";"1536x754";0;1;0;0
"5d47d84a4555540001a4ae83";"BRAC2_vertAL_1st300";2;82;492,989999998827;"L";1;0;NA;"L";"black";"red";"magnit";3;300;"Windows 10";"Chrome 83.0.4103.116";"1536x754";0;1;1;0
"5d47d84a4555540001a4ae83";"BRAC2_vertAL_1st300";2;83;341,664999999804;"L";1;0;NA;"L";"black";"red";"parity";1;300;"Windows 10";"Chrome 83.0.4103.116";"1536x754";1;0;0;0
"5d47d84a4555540001a4ae83";"BRAC2_vertAL_1st300";2;84;865,739999993937;"A";1;0;NA;"A";"black";"blue";"magnit";7;300;"Windows 10";"Chrome 83.0.4103.116";"1536x754";1;1;1;0
"5d47d84a4555540001a4ae83";"BRAC2_vertAL_1st300";2;85;420,37500000163;"A";1;0;NA;"A";"black";"red";"parity";8;300;"Windows 10";"Chrome 83.0.4103.116";"1536x754";1;0;1;0
"5d47d84a4555540001a4ae83";"BRAC2_vertAL_1st300";2;86;334,889999998268;"A";1;0;NA;"A";"black";"red";"parity";4;300;"Windows 10";"Chrome 83.0.4103.116";"1536x754";0;0;0;0
"5d47d84a4555540001a4ae83";"BRAC2_vertAL_1st300";2;87;502,915000004694;"L";1;0;NA;"L";"black";"red";"parity";9;300;"Windows 10";"Chrome 83.0.4103.116";"1536x754";0;1;0;0
"5d47d84a4555540001a4ae83";"BRAC2_vertAL_1st300";2;88;790,909999996191;"L";1;0;NA;"L";"black";"red";"magnit";1;300;"Windows 10";"Chrome 83.0.4103.116";"1536x754";1;0;0;0
"5d47d84a4555540001a4ae83";"BRAC2_vertAL_1st300";2;89;302,654999992112;"A";1;0;NA;"A";"black";"blue";"magnit";8;300;"Windows 10";"Chrome 83.0.4103.116";"1536x754";0;1;1;0
"5d47d84a4555540001a4ae83";"BRAC2_vertAL_1st300";2;90;1318,6350000035;"A";1;0;NA;"A";"black";"red";"parity";6;300;"Windows 10";"Chrome 83.0.4103.116";"1536x754";1;0;1;0
"5d47d84a4555540001a4ae83";"BRAC2_vertAL_1st300";2;91;655,350000000792;"L";1;0;NA;"L";"black";"red";"magnit";1;300;"Windows 10";"Chrome 83.0.4103.116";"1536x754";1;1;0;0
"5d47d84a4555540001a4ae83";"BRAC2_vertAL_1st300";2;92;899,270000009099;"L";1;0;NA;"L";"black";"red";"magnit";2;300;"Windows 10";"Chrome 83.0.4103.116";"1536x754";0;0;0;0
"5d47d84a4555540001a4ae83";"BRAC2_vertAL_1st300";2;93;513,7100000137;"L";1;0;NA;"L";"black";"blue";"parity";1;300;"Windows 10";"Chrome 83.0.4103.116";"1536x754";1;0;1;0
"5d47d84a4555540001a4ae83";"BRAC2_vertAL_1st300";2;94;551,449999999022;"L";1;0;NA;"L";"black";"blue";"magnit";3;300;"Windows 10";"Chrome 83.0.4103.116";"1536x754";1;0;0;0
"5d47d84a4555540001a4ae83";"BRAC2_vertAL_1st300";2;95;1365,94000000344;"L";1;0;NA;"L";"black";"blue";"parity";1;300;"Windows 10";"Chrome 83.0.4103.116";"1536x754";1;0;0;0
"5d47d84a4555540001a4ae83";"BRAC2_vertAL_1st300";3;0;1379,80000000959;"L";1;0;NA;"L";"black";"red";"parity";3;0;"Windows 10";"Chrome 83.0.4103.116";"1536x754";99;99;99;99
"5d47d84a4555540001a4ae83";"BRAC2_vertAL_1st300";3;1;483,529999997932;"L";1;0;NA;"L";"black";"blue";"magnit";4;0;"Windows 10";"Chrome 83.0.4103.116";"1536x754";1;0;1;0
"5d47d84a4555540001a4ae83";"BRAC2_vertAL_1st300";3;2;1142,76000000257;"L";1;0;NA;"L";"black";"red";"magnit";1;0;"Windows 10";"Chrome 83.0.4103.116";"1536x754";0;0;1;0
"5d47d84a4555540001a4ae83";"BRAC2_vertAL_1st300";3;3;1117,80000000726;"A";1;0;NA;"A";"black";"blue";"magnit";6;0;"Windows 10";"Chrome 83.0.4103.116";"1536x754";0;1;1;0
"5d47d84a4555540001a4ae83";"BRAC2_vertAL_1st300";3;4;372,609999991488;"L";1;0;NA;"L";"black";"red";"magnit";4;0;"Windows 10";"Chrome 83.0.4103.116";"1536x754";0;1;1;0
"5d47d84a4555540001a4ae83";"BRAC2_vertAL_1st300";3;5;450,639999995474;"A";1;0;NA;"A";"black";"blue";"parity";2;0;"Windows 10";"Chrome 83.0.4103.116";"1536x754";1;1;1;0
"5d47d84a4555540001a4ae83";"BRAC2_vertAL_1st300";3;6;1203,1200000057;"L";1;0;NA;"L";"black";"red";"parity";7;0;"Windows 10";"Chrome 83.0.4103.116";"1536x754";0;1;1;0
"5d47d84a4555540001a4ae83";"BRAC2_vertAL_1st300";3;7;521,159999989439;"A";1;0;NA;"A";"black";"blue";"parity";8;0;"Windows 10";"Chrome 83.0.4103.116";"1536x754";0;1;1;0
"5d47d84a4555540001a4ae83";"BRAC2_vertAL_1st300";3;8;647,935000000987;"L";1;0;NA;"L";"black";"blue";"parity";7;0;"Windows 10";"Chrome 83.0.4103.116";"1536x754";0;1;0;0
"5d47d84a4555540001a4ae83";"BRAC2_vertAL_1st300";3;9;991,819999995641;"A";1;0;NA;"A";"black";"red";"magnit";8;0;"Windows 10";"Chrome 83.0.4103.116";"1536x754";1;1;1;0
"5d47d84a4555540001a4ae83";"BRAC2_vertAL_1st300";3;10;458,124999990221;"A";1;0;NA;"A";"black";"red";"magnit";6;0;"Windows 10";"Chrome 83.0.4103.116";"1536x754";0;0;0;0
"5d47d84a4555540001a4ae83";"BRAC2_vertAL_1st300";3;11;515,339999997988;"L";1;0;NA;"L";"black";"blue";"parity";7;0;"Windows 10";"Chrome 83.0.4103.116";"1536x754";1;1;1;0
"5d47d84a4555540001a4ae83";"BRAC2_vertAL_1st300";3;12;1312,57999999821;"A";1;0;NA;"A";"black";"red";"parity";6;0;"Windows 10";"Chrome 83.0.4103.116";"1536x754";0;1;1;0
"5d47d84a4555540001a4ae83";"BRAC2_vertAL_1st300";3;13;1562,15500000678;"L";1;0;NA;"L";"black";"blue";"parity";9;0;"Windows 10";"Chrome 83.0.4103.116";"1536x754";0;1;1;0
"5d47d84a4555540001a4ae83";"BRAC2_vertAL_1st300";3;14;419,565000003669;"A";1;0;NA;"A";"black";"blue";"parity";4;0;"Windows 10";"Chrome 83.0.4103.116";"1536x754";0;1;0;0
"5d47d84a4555540001a4ae83";"BRAC2_vertAL_1st300";3;15;369,854999997187;"L";1;0;NA;"L";"black";"red";"magnit";2;0;"Windows 10";"Chrome 83.0.4103.116";"1536x754";1;1;1;0
"5d47d84a4555540001a4ae83";"BRAC2_vertAL_1st300";3;16;360,509999998379;"L";1;0;NA;"L";"black";"red";"magnit";3;0;"Windows 10";"Chrome 83.0.4103.116";"1536x754";0;0;0;0
"5d47d84a4555540001a4ae83";"BRAC2_vertAL_1st300";3;17;297,955000001937;"A";1;0;NA;"A";"black";"blue";"magnit";9;0;"Windows 10";"Chrome 83.0.4103.116";"1536x754";0;1;1;0
"5d47d84a4555540001a4ae83";"BRAC2_vertAL_1st300";3;18;342,640000002459;"L";1;0;NA;"L";"black";"blue";"magnit";1;0;"Windows 10";"Chrome 83.0.4103.116";"1536x754";0;1;0;0
"5d47d84a4555540001a4ae83";"BRAC2_vertAL_1st300";3;19;429,824999999255;"A";1;0;NA;"A";"black";"red";"magnit";7;0;"Windows 10";"Chrome 83.0.4103.116";"1536x754";0;1;1;0
"5d47d84a4555540001a4ae83";"BRAC2_vertAL_1st300";3;20;786,160000003409;"A";1;0;NA;"A";"black";"blue";"parity";8;0;"Windows 10";"Chrome 83.0.4103.116";"1536x754";1;0;1;0
"5d47d84a4555540001a4ae83";"BRAC2_vertAL_1st300";3;21;390,805000002962;"L";1;0;NA;"L";"black";"blue";"magnit";4;0;"Windows 10";"Chrome 83.0.4103.116";"1536x754";1;1;0;0
"5d47d84a4555540001a4ae83";"BRAC2_vertAL_1st300";3;22;495,475000003353;"L";1;0;NA;"L";"black";"red";"magnit";1;0;"Windows 10";"Chrome 83.0.4103.116";"1536x754";0;0;1;0
"5d47d84a4555540001a4ae83";"BRAC2_vertAL_1st300";3;23;1036,30500000156;"A";1;0;NA;"A";"black";"red";"parity";8;0;"Windows 10";"Chrome 83.0.4103.116";"1536x754";1;1;0;0
"5d47d84a4555540001a4ae83";"BRAC2_vertAL_1st300";3;24;544,490000000224;"A";1;1;NA;"L";"black";"red";"parity";7;0;"Windows 10";"Chrome 83.0.4103.116";"1536x754";0;1;0;0
"5d47d84a4555540001a4ae83";"BRAC2_vertAL_1st300";3;25;492,195000013337;"L";1;0;NA;"L";"black";"blue";"magnit";4;0;"Windows 10";"Chrome 83.0.4103.116";"1536x754";1;0;1;1
"5d47d84a4555540001a4ae83";"BRAC2_vertAL_1st300";3;26;427,025000011548;"L";1;0;NA;"L";"black";"blue";"parity";1;0;"Windows 10";"Chrome 83.0.4103.116";"1536x754";1;0;0;0
"5d47d84a4555540001a4ae83";"BRAC2_vertAL_1st300";3;27;440,619999994058;"A";1;0;NA;"A";"black";"red";"parity";4;0;"Windows 10";"Chrome 83.0.4103.116";"1536x754";0;1;1;0
"5d47d84a4555540001a4ae83";"BRAC2_vertAL_1st300";3;28;360,919999992009;"L";1;0;NA;"L";"black";"red";"magnit";1;0;"Windows 10";"Chrome 83.0.4103.116";"1536x754";1;1;0;0
"5d47d84a4555540001a4ae83";"BRAC2_vertAL_1st300";3;29;353,220000004396;"L";1;0;NA;"L";"black";"blue";"magnit";2;0;"Windows 10";"Chrome 83.0.4103.116";"1536x754";0;0;1;0
"5d47d84a4555540001a4ae83";"BRAC2_vertAL_1st300";3;30;474,259999988135;"A";1;0;NA;"A";"black";"blue";"magnit";9;0;"Windows 10";"Chrome 83.0.4103.116";"1536x754";0;1;0;0
"5d47d84a4555540001a4ae83";"BRAC2_vertAL_1st300";3;31;336,719999991823;"L";1;0;NA;"L";"black";"red";"parity";1;0;"Windows 10";"Chrome 83.0.4103.116";"1536x754";1;1;1;0
"5d47d84a4555540001a4ae83";"BRAC2_vertAL_1st300";3;32;311,900000000838;"L";1;0;NA;"L";"black";"red";"magnit";2;0;"Windows 10";"Chrome 83.0.4103.116";"1536x754";1;0;0;0
"5d47d84a4555540001a4ae83";"BRAC2_vertAL_1st300";3;33;405,254999990575;"A";1;0;NA;"A";"black";"blue";"parity";8;0;"Windows 10";"Chrome 83.0.4103.116";"1536x754";1;1;1;0
"5d47d84a4555540001a4ae83";"BRAC2_vertAL_1st300";3;34;522,584999998566;"L";1;1;NA;"A";"black";"red";"parity";6;0;"Windows 10";"Chrome 83.0.4103.116";"1536x754";0;0;1;0
"5d47d84a4555540001a4ae83";"BRAC2_vertAL_1st300";3;35;556,320000003092;"A";1;0;NA;"A";"black";"blue";"magnit";7;0;"Windows 10";"Chrome 83.0.4103.116";"1536x754";1;0;1;1
"5d47d84a4555540001a4ae83";"BRAC2_vertAL_1st300";3;36;454,815000004135;"A";1;0;NA;"A";"black";"blue";"magnit";8;0;"Windows 10";"Chrome 83.0.4103.116";"1536x754";0;0;0;0
"5d47d84a4555540001a4ae83";"BRAC2_vertAL_1st300";3;37;468,729999992996;"A";1;0;NA;"A";"black";"red";"parity";2;0;"Windows 10";"Chrome 83.0.4103.116";"1536x754";1;0;1;0
"5d47d84a4555540001a4ae83";"BRAC2_vertAL_1st300";3;38;368,605000010226;"L";1;0;NA;"L";"black";"blue";"parity";7;0;"Windows 10";"Chrome 83.0.4103.116";"1536x754";0;1;1;0
"5d47d84a4555540001a4ae83";"BRAC2_vertAL_1st300";3;39;379,845000003465;"L";1;0;NA;"L";"black";"red";"parity";1;0;"Windows 10";"Chrome 83.0.4103.116";"1536x754";0;0;1;0
"5d47d84a4555540001a4ae83";"BRAC2_vertAL_1st300";3;40;335,779999993742;"A";1;0;NA;"A";"black";"red";"magnit";6;0;"Windows 10";"Chrome 83.0.4103.116";"1536x754";1;1;0;0
"5d47d84a4555540001a4ae83";"BRAC2_vertAL_1st300";3;41;322,260000000708;"L";1;1;NA;"A";"black";"red";"magnit";7;0;"Windows 10";"Chrome 83.0.4103.116";"1536x754";0;0;0;0
"5d47d84a4555540001a4ae83";"BRAC2_vertAL_1st300";3;42;427,360000001267;"L";1;0;NA;"L";"black";"red";"magnit";3;0;"Windows 10";"Chrome 83.0.4103.116";"1536x754";0;1;0;1
"5d47d84a4555540001a4ae83";"BRAC2_vertAL_1st300";3;43;347,759999989532;"A";1;0;NA;"A";"black";"red";"parity";8;0;"Windows 10";"Chrome 83.0.4103.116";"1536x754";1;1;0;0
"5d47d84a4555540001a4ae83";"BRAC2_vertAL_1st300";3;44;344,629999992438;"A";1;0;NA;"A";"black";"red";"magnit";6;0;"Windows 10";"Chrome 83.0.4103.116";"1536x754";1;0;0;0
"5d47d84a4555540001a4ae83";"BRAC2_vertAL_1st300";3;45;362,88999998942;"A";1;0;NA;"A";"black";"blue";"parity";2;0;"Windows 10";"Chrome 83.0.4103.116";"1536x754";1;0;1;0
"5d47d84a4555540001a4ae83";"BRAC2_vertAL_1st300";3;46;536,93000000203;"L";1;0;NA;"L";"black";"blue";"magnit";3;0;"Windows 10";"Chrome 83.0.4103.116";"1536x754";1;1;0;0
"5d47d84a4555540001a4ae83";"BRAC2_vertAL_1st300";3;47;365,929999999702;"A";1;0;NA;"A";"black";"blue";"magnit";7;0;"Windows 10";"Chrome 83.0.4103.116";"1536x754";0;1;0;0
"5d47d84a4555540001a4ae83";"BRAC2_vertAL_1st300";3;48;1379,28500000294;"L";1;0;NA;"L";"black";"red";"magnit";3;0;"Windows 10";"Chrome 83.0.4103.116";"1536x754";0;1;1;0
"5d47d84a4555540001a4ae83";"BRAC2_vertAL_1st300";3;49;595,005000010133;"A";1;1;NA;"L";"black";"blue";"magnit";2;0;"Windows 10";"Chrome 83.0.4103.116";"1536x754";0;0;1;0
"5d47d84a4555540001a4ae83";"BRAC2_vertAL_1st300";3;50;402,109999995679;"L";1;0;NA;"L";"black";"blue";"magnit";1;0;"Windows 10";"Chrome 83.0.4103.116";"1536x754";0;0;0;1
"5d47d84a4555540001a4ae83";"BRAC2_vertAL_1st300";3;51;351,580000001937;"A";1;0;NA;"A";"black";"blue";"magnit";7;0;"Windows 10";"Chrome 83.0.4103.116";"1536x754";0;1;0;0
"5d47d84a4555540001a4ae83";"BRAC2_vertAL_1st300";3;52;425,204999992158;"A";1;0;NA;"A";"black";"blue";"parity";6;0;"Windows 10";"Chrome 83.0.4103.116";"1536x754";1;0;0;0
"5d47d84a4555540001a4ae83";"BRAC2_vertAL_1st300";3;53;397,150000004098;"L";1;0;NA;"L";"black";"blue";"parity";3;0;"Windows 10";"Chrome 83.0.4103.116";"1536x754";0;1;0;0
"5d47d84a4555540001a4ae83";"BRAC2_vertAL_1st300";3;54;851,775000002701;"A";1;0;NA;"A";"black";"blue";"parity";6;0;"Windows 10";"Chrome 83.0.4103.116";"1536x754";0;1;0;0
"5d47d84a4555540001a4ae83";"BRAC2_vertAL_1st300";3;55;524,514999996871;"A";1;0;NA;"A";"black";"blue";"magnit";8;0;"Windows 10";"Chrome 83.0.4103.116";"1536x754";1;0;0;0
"5d47d84a4555540001a4ae83";"BRAC2_vertAL_1st300";3;56;402,125000007916;"A";1;0;NA;"A";"black";"blue";"parity";6;0;"Windows 10";"Chrome 83.0.4103.116";"1536x754";1;0;0;0
"5d47d84a4555540001a4ae83";"BRAC2_vertAL_1st300";3;57;382,649999999441;"L";1;0;NA;"L";"black";"red";"magnit";2;0;"Windows 10";"Chrome 83.0.4103.116";"1536x754";1;1;1;0
"5d47d84a4555540001a4ae83";"BRAC2_vertAL_1st300";3;58;563,425000000279;"A";1;0;NA;"A";"black";"red";"parity";4;0;"Windows 10";"Chrome 83.0.4103.116";"1536x754";1;1;0;0
"5d47d84a4555540001a4ae83";"BRAC2_vertAL_1st300";3;59;504,545000003185;"L";1;0;NA;"L";"black";"red";"parity";9;0;"Windows 10";"Chrome 83.0.4103.116";"1536x754";0;1;0;0
"5d47d84a4555540001a4ae83";"BRAC2_vertAL_1st300";3;60;1468,97999999067;"L";1;0;NA;"L";"black";"red";"parity";7;0;"Windows 10";"Chrome 83.0.4103.116";"1536x754";0;0;0;0
"5d47d84a4555540001a4ae83";"BRAC2_vertAL_1st300";3;61;400,800000002608;"L";1;0;NA;"L";"black";"blue";"magnit";3;0;"Windows 10";"Chrome 83.0.4103.116";"1536x754";1;0;1;0
"5d47d84a4555540001a4ae83";"BRAC2_vertAL_1st300";3;62;455,925000002142;"A";1;0;NA;"A";"black";"blue";"parity";4;0;"Windows 10";"Chrome 83.0.4103.116";"1536x754";1;1;0;0
"5d47d84a4555540001a4ae83";"BRAC2_vertAL_1st300";3;63;373,859999991953;"A";1;0;NA;"A";"black";"red";"magnit";9;0;"Windows 10";"Chrome 83.0.4103.116";"1536x754";1;0;1;0
"5d47d84a4555540001a4ae83";"BRAC2_vertAL_1st300";3;64;588,729999988806;"L";1;0;NA;"L";"black";"blue";"parity";3;0;"Windows 10";"Chrome 83.0.4103.116";"1536x754";1;1;1;0
"5d47d84a4555540001a4ae83";"BRAC2_vertAL_1st300";3;65;407,884999993257;"L";1;0;NA;"L";"black";"red";"magnit";4;0;"Windows 10";"Chrome 83.0.4103.116";"1536x754";1;0;1;0
"5d47d84a4555540001a4ae83";"BRAC2_vertAL_1st300";3;66;1651,55999999866;"A";1;1;NA;"L";"black";"blue";"parity";1;0;"Windows 10";"Chrome 83.0.4103.116";"1536x754";1;0;1;0
"5d47d84a4555540001a4ae83";"BRAC2_vertAL_1st300";3;67;365,39999999525;"L";1;0;NA;"L";"black";"red";"magnit";4;0;"Windows 10";"Chrome 83.0.4103.116";"1536x754";1;0;1;1
"5d47d84a4555540001a4ae83";"BRAC2_vertAL_1st300";3;68;442,185000007041;"A";1;0;NA;"A";"black";"red";"parity";6;0;"Windows 10";"Chrome 83.0.4103.116";"1536x754";1;1;0;0
"5d47d84a4555540001a4ae83";"BRAC2_vertAL_1st300";3;69;476,060000000987;"A";1;0;NA;"A";"black";"blue";"parity";2;0;"Windows 10";"Chrome 83.0.4103.116";"1536x754";0;0;1;0
"5d47d84a4555540001a4ae83";"BRAC2_vertAL_1st300";3;70;319,430000003427;"A";1;0;NA;"A";"black";"blue";"magnit";6;0;"Windows 10";"Chrome 83.0.4103.116";"1536x754";1;0;0;0
"5d47d84a4555540001a4ae83";"BRAC2_vertAL_1st300";3;71;351,760000005364;"L";1;0;NA;"L";"black";"red";"parity";1;0;"Windows 10";"Chrome 83.0.4103.116";"1536x754";1;1;1;0
"5d47d84a4555540001a4ae83";"BRAC2_vertAL_1st300";3;72;497,099999993108;"L";1;0;NA;"L";"black";"red";"parity";9;0;"Windows 10";"Chrome 83.0.4103.116";"1536x754";0;0;0;0
"5d47d84a4555540001a4ae83";"BRAC2_vertAL_1st300";3;73;373,599999991711;"A";1;0;NA;"A";"black";"red";"parity";2;0;"Windows 10";"Chrome 83.0.4103.116";"1536x754";0;1;0;0
"5d47d84a4555540001a4ae83";"BRAC2_vertAL_1st300";3;74;364,649999988731;"L";1;0;NA;"L";"black";"blue";"magnit";3;0;"Windows 10";"Chrome 83.0.4103.116";"1536x754";1;1;1;0
"5d47d84a4555540001a4ae83";"BRAC2_vertAL_1st300";3;75;418,610000007786;"A";1;0;NA;"A";"black";"blue";"parity";4;0;"Windows 10";"Chrome 83.0.4103.116";"1536x754";1;1;0;0
"5d47d84a4555540001a4ae83";"BRAC2_vertAL_1st300";3;76;339,090000008699;"A";1;0;NA;"A";"black";"blue";"magnit";9;0;"Windows 10";"Chrome 83.0.4103.116";"1536x754";1;0;0;0
"5d47d84a4555540001a4ae83";"BRAC2_vertAL_1st300";3;77;420,499999993015;"A";1;0;NA;"A";"black";"red";"magnit";8;0;"Windows 10";"Chrome 83.0.4103.116";"1536x754";0;0;1;0
"5d47d84a4555540001a4ae83";"BRAC2_vertAL_1st300";3;78;537,3799999943;"A";1;0;NA;"A";"black";"red";"magnit";9;0;"Windows 10";"Chrome 83.0.4103.116";"1536x754";0;0;0;0
"5d47d84a4555540001a4ae83";"BRAC2_vertAL_1st300";3;79;458,995000008028;"L";1;0;NA;"L";"black";"red";"parity";3;0;"Windows 10";"Chrome 83.0.4103.116";"1536x754";1;1;0;0
"5d47d84a4555540001a4ae83";"BRAC2_vertAL_1st300";3;80;492,870000001974;"L";1;0;NA;"L";"black";"blue";"magnit";1;0;"Windows 10";"Chrome 83.0.4103.116";"1536x754";1;0;1;0
"5d47d84a4555540001a4ae83";"BRAC2_vertAL_1st300";3;81;596,544999992941;"A";1;0;NA;"A";"black";"red";"magnit";9;0;"Windows 10";"Chrome 83.0.4103.116";"1536x754";0;1;1;0
"5d47d84a4555540001a4ae83";"BRAC2_vertAL_1st300";3;82;393,595000001602;"A";1;0;NA;"A";"black";"blue";"magnit";8;0;"Windows 10";"Chrome 83.0.4103.116";"1536x754";0;0;1;0
"5d47d84a4555540001a4ae83";"BRAC2_vertAL_1st300";3;83;957,980000006501;"L";1;0;NA;"L";"black";"blue";"parity";9;0;"Windows 10";"Chrome 83.0.4103.116";"1536x754";1;1;0;0
"5d47d84a4555540001a4ae83";"BRAC2_vertAL_1st300";3;84;422,520000007469;"L";1;0;NA;"L";"black";"red";"parity";3;0;"Windows 10";"Chrome 83.0.4103.116";"1536x754";0;0;1;0
"5d47d84a4555540001a4ae83";"BRAC2_vertAL_1st300";3;85;571,259999996983;"L";1;0;NA;"L";"black";"blue";"parity";1;0;"Windows 10";"Chrome 83.0.4103.116";"1536x754";0;0;1;0
"5d47d84a4555540001a4ae83";"BRAC2_vertAL_1st300";3;86;450,020000003744;"A";1;0;NA;"A";"black";"blue";"magnit";6;0;"Windows 10";"Chrome 83.0.4103.116";"1536x754";1;1;0;0
"5d47d84a4555540001a4ae83";"BRAC2_vertAL_1st300";3;87;381,434999988414;"A";1;0;NA;"A";"black";"red";"magnit";8;0;"Windows 10";"Chrome 83.0.4103.116";"1536x754";0;0;1;0
"5d47d84a4555540001a4ae83";"BRAC2_vertAL_1st300";3;88;478,034999993164;"A";1;1;NA;"L";"black";"blue";"parity";3;0;"Windows 10";"Chrome 83.0.4103.116";"1536x754";1;1;1;0
"5d47d84a4555540001a4ae83";"BRAC2_vertAL_1st300";3;89;462,325000000186;"L";1;0;NA;"L";"black";"blue";"parity";9;0;"Windows 10";"Chrome 83.0.4103.116";"1536x754";0;0;0;1
"5d47d84a4555540001a4ae83";"BRAC2_vertAL_1st300";3;90;422,869999994989;"L";1;0;NA;"L";"black";"blue";"magnit";2;0;"Windows 10";"Chrome 83.0.4103.116";"1536x754";1;0;0;0
"5d47d84a4555540001a4ae83";"BRAC2_vertAL_1st300";3;91;592,539999997709;"A";1;0;NA;"A";"black";"red";"parity";8;0;"Windows 10";"Chrome 83.0.4103.116";"1536x754";1;1;1;0
"5d47d84a4555540001a4ae83";"BRAC2_vertAL_1st300";3;92;368,90500001004;"A";1;0;NA;"A";"black";"red";"parity";2;0;"Windows 10";"Chrome 83.0.4103.116";"1536x754";0;0;0;0
"5d47d84a4555540001a4ae83";"BRAC2_vertAL_1st300";3;93;465,595000001136;"A";1;0;NA;"A";"black";"red";"parity";4;0;"Windows 10";"Chrome 83.0.4103.116";"1536x754";0;0;0;0
"5d47d84a4555540001a4ae83";"BRAC2_vertAL_1st300";3;94;518,03000000678;"L";1;0;NA;"L";"black";"red";"parity";9;0;"Windows 10";"Chrome 83.0.4103.116";"1536x754";0;1;0;0
"5d47d84a4555540001a4ae83";"BRAC2_vertAL_1st300";3;95;498,180000009481;"A";1;0;NA;"A";"black";"red";"magnit";7;0;"Windows 10";"Chrome 83.0.4103.116";"1536x754";1;1;0;0
"5dada613823b7d0016484453";"BRAC2_vertLA_1st0";0;0;815,079999971204;"A";1;1;NA;"L";"black";"blue";"magnit";7;0;"Windows 10";"Chrome 83.0.4103.116";"1920x1007";99;99;99;99
"5dada613823b7d0016484453";"BRAC2_vertLA_1st0";0;1;1407,7549999347;"A";1;0;NA;"A";"black";"blue";"parity";3;0;"Windows 10";"Chrome 83.0.4103.116";"1920x1007";1;1;0;1
"5dada613823b7d0016484453";"BRAC2_vertLA_1st0";0;2;719,509999966249;"L";1;0;NA;"L";"black";"blue";"magnit";6;0;"Windows 10";"Chrome 83.0.4103.116";"1920x1007";1;1;0;0
"5dada613823b7d0016484453";"BRAC2_vertLA_1st0";0;3;1745,77499995939;"A";1;1;NA;"L";"black";"red";"magnit";9;0;"Windows 10";"Chrome 83.0.4103.116";"1920x1007";0;0;1;0
"5dada613823b7d0016484453";"BRAC2_vertLA_1st0";0;4;1693,2149999775;"A";1;0;NA;"A";"black";"blue";"magnit";4;0;"Windows 10";"Chrome 83.0.4103.116";"1920x1007";0;1;1;1
"5dada613823b7d0016484453";"BRAC2_vertLA_1st0";0;5;2065,62500004657;"L";1;0;NA;"L";"black";"red";"magnit";6;0;"Windows 10";"Chrome 83.0.4103.116";"1920x1007";0;1;1;0
"5dada613823b7d0016484453";"BRAC2_vertLA_1st0";0;6;2500,114;NA;NA;1;1;"L";"black";"red";"parity";2;0;"Windows 10";"Chrome 83.0.4103.116";"1920x1007";1;0;0;0
"5dada613823b7d0016484453";"BRAC2_vertLA_1st0";0;7;1275,03000001889;"A";1;0;NA;"A";"black";"red";"magnit";1;0;"Windows 10";"Chrome 83.0.4103.116";"1920x1007";1;1;0;1
"5dada613823b7d0016484453";"BRAC2_vertLA_1st0";0;8;1880,04499999806;"L";1;0;NA;"L";"black";"red";"parity";8;0;"Windows 10";"Chrome 83.0.4103.116";"1920x1007";1;1;0;0
"5dada613823b7d0016484453";"BRAC2_vertLA_1st0";0;9;1348,28499995638;"A";1;0;NA;"A";"black";"blue";"parity";9;0;"Windows 10";"Chrome 83.0.4103.116";"1920x1007";0;1;1;0
"5dada613823b7d0016484453";"BRAC2_vertLA_1st0";0;10;839,294999954291;"A";1;1;NA;"L";"black";"blue";"parity";2;0;"Windows 10";"Chrome 83.0.4103.116";"1920x1007";0;1;0;0
"5dada613823b7d0016484453";"BRAC2_vertLA_1st0";0;11;885,155000025406;"L";1;0;NA;"L";"black";"red";"magnit";6;0;"Windows 10";"Chrome 83.0.4103.116";"1920x1007";1;0;1;1
"5dada613823b7d0016484453";"BRAC2_vertLA_1st0";0;12;1714,12000001874;"A";1;0;NA;"A";"black";"red";"parity";9;0;"Windows 10";"Chrome 83.0.4103.116";"1920x1007";1;1;0;0
"5dada613823b7d0016484453";"BRAC2_vertLA_1st0";0;13;1165,06500006653;"L";1;0;NA;"L";"black";"red";"parity";2;0;"Windows 10";"Chrome 83.0.4103.116";"1920x1007";0;1;0;0
"5dada613823b7d0016484453";"BRAC2_vertLA_1st0";0;14;798,955000005662;"L";1;0;NA;"L";"black";"red";"magnit";8;0;"Windows 10";"Chrome 83.0.4103.116";"1920x1007";1;0;0;0
"5dada613823b7d0016484453";"BRAC2_vertLA_1st0";0;15;1102,60500002187;"L";1;0;NA;"L";"black";"red";"magnit";9;0;"Windows 10";"Chrome 83.0.4103.116";"1920x1007";0;0;0;0
"5dada613823b7d0016484453";"BRAC2_vertLA_1st0";0;16;770,595000009052;"L";1;0;NA;"L";"black";"blue";"parity";4;0;"Windows 10";"Chrome 83.0.4103.116";"1920x1007";1;0;1;0
"5dada613823b7d0016484453";"BRAC2_vertLA_1st0";0;17;931,849999935366;"L";1;0;NA;"L";"black";"red";"parity";2;0;"Windows 10";"Chrome 83.0.4103.116";"1920x1007";0;0;1;0
"5dada613823b7d0016484453";"BRAC2_vertLA_1st0";0;18;983,144999947399;"A";1;0;NA;"A";"black";"red";"magnit";1;0;"Windows 10";"Chrome 83.0.4103.116";"1920x1007";1;1;0;0
"5dada613823b7d0016484453";"BRAC2_vertLA_1st0";0;19;1782,44999994058;"A";1;0;NA;"A";"black";"red";"parity";3;0;"Windows 10";"Chrome 83.0.4103.116";"1920x1007";1;0;0;0
"5dada613823b7d0016484453";"BRAC2_vertLA_1st0";0;20;2241,01500003599;"A";1;0;NA;"A";"black";"blue";"magnit";1;0;"Windows 10";"Chrome 83.0.4103.116";"1920x1007";1;0;1;0
"5dada613823b7d0016484453";"BRAC2_vertLA_1st0";0;21;918,799999984913;"L";1;0;NA;"L";"black";"red";"parity";6;0;"Windows 10";"Chrome 83.0.4103.116";"1920x1007";1;1;1;0
"5dada613823b7d0016484453";"BRAC2_vertLA_1st0";0;22;826,170000014827;"L";1;0;NA;"L";"black";"blue";"parity";8;0;"Windows 10";"Chrome 83.0.4103.116";"1920x1007";0;0;1;0
"5dada613823b7d0016484453";"BRAC2_vertLA_1st0";0;23;913,1950000301;"A";1;0;NA;"A";"black";"red";"magnit";3;0;"Windows 10";"Chrome 83.0.4103.116";"1920x1007";1;1;1;0
"5dada613823b7d0016484453";"BRAC2_vertLA_1st0";0;24;812,950000050478;"L";1;0;NA;"L";"black";"blue";"magnit";6;0;"Windows 10";"Chrome 83.0.4103.116";"1920x1007";0;1;1;0
"5dada613823b7d0016484453";"BRAC2_vertLA_1st0";0;25;701,56999991741;"A";1;0;NA;"A";"black";"blue";"magnit";3;0;"Windows 10";"Chrome 83.0.4103.116";"1920x1007";0;1;0;0
"5dada613823b7d0016484453";"BRAC2_vertLA_1st0";0;26;1767,54000002984;"A";1;1;NA;"L";"black";"red";"magnit";7;0;"Windows 10";"Chrome 83.0.4103.116";"1920x1007";0;1;1;0
"5dada613823b7d0016484453";"BRAC2_vertLA_1st0";0;27;642,050000024028;"L";1;0;NA;"L";"black";"blue";"parity";8;0;"Windows 10";"Chrome 83.0.4103.116";"1920x1007";1;0;1;1
"5dada613823b7d0016484453";"BRAC2_vertLA_1st0";0;28;897,074999986216;"A";1;0;NA;"A";"black";"blue";"parity";1;0;"Windows 10";"Chrome 83.0.4103.116";"1920x1007";0;1;0;0
"5dada613823b7d0016484453";"BRAC2_vertLA_1st0";0;29;813,569999998435;"L";1;0;NA;"L";"black";"red";"parity";4;0;"Windows 10";"Chrome 83.0.4103.116";"1920x1007";0;1;1;0
"5dada613823b7d0016484453";"BRAC2_vertLA_1st0";0;30;852,554999990389;"A";1;0;NA;"A";"black";"blue";"magnit";2;0;"Windows 10";"Chrome 83.0.4103.116";"1920x1007";1;1;1;0
"5dada613823b7d0016484453";"BRAC2_vertLA_1st0";0;31;1327,31500000227;"L";1;0;NA;"L";"black";"blue";"parity";6;0;"Windows 10";"Chrome 83.0.4103.116";"1920x1007";1;1;0;0
"5dada613823b7d0016484453";"BRAC2_vertLA_1st0";0;32;1436,93500000518;"A";1;0;NA;"A";"black";"blue";"magnit";3;0;"Windows 10";"Chrome 83.0.4103.116";"1920x1007";1;1;0;0
"5dada613823b7d0016484453";"BRAC2_vertLA_1st0";0;33;706,329999957234;"L";1;0;NA;"L";"black";"blue";"magnit";8;0;"Windows 10";"Chrome 83.0.4103.116";"1920x1007";0;1;0;0
"5dada613823b7d0016484453";"BRAC2_vertLA_1st0";0;34;750,744999968447;"A";1;1;NA;"L";"black";"blue";"magnit";7;0;"Windows 10";"Chrome 83.0.4103.116";"1920x1007";0;0;0;0
"5dada613823b7d0016484453";"BRAC2_vertLA_1st0";0;35;2500,37600000005;NA;NA;1;1;"A";"black";"red";"parity";1;0;"Windows 10";"Chrome 83.0.4103.116";"1920x1007";1;1;1;1
"5dada613823b7d0016484453";"BRAC2_vertLA_1st0";0;36;717,880000011064;"A";1;0;NA;"A";"black";"red";"parity";3;0;"Windows 10";"Chrome 83.0.4103.116";"1920x1007";0;0;0;1
"5dada613823b7d0016484453";"BRAC2_vertLA_1st0";0;37;945,189999998547;"L";1;0;NA;"L";"black";"blue";"parity";2;0;"Windows 10";"Chrome 83.0.4103.116";"1920x1007";0;1;1;0
"5dada613823b7d0016484453";"BRAC2_vertLA_1st0";0;38;780,665000085719;"A";1;0;NA;"A";"black";"blue";"parity";3;0;"Windows 10";"Chrome 83.0.4103.116";"1920x1007";0;1;0;0
"5dada613823b7d0016484453";"BRAC2_vertLA_1st0";0;39;1291,98500001803;"A";1;0;NA;"A";"black";"blue";"parity";7;0;"Windows 10";"Chrome 83.0.4103.116";"1920x1007";0;0;0;0
"5dada613823b7d0016484453";"BRAC2_vertLA_1st0";0;40;775,595000013709;"L";1;0;NA;"L";"black";"blue";"parity";8;0;"Windows 10";"Chrome 83.0.4103.116";"1920x1007";0;1;0;0
"5dada613823b7d0016484453";"BRAC2_vertLA_1st0";0;41;778,754999977536;"L";1;0;NA;"L";"black";"red";"magnit";6;0;"Windows 10";"Chrome 83.0.4103.116";"1920x1007";1;0;1;0
"5dada613823b7d0016484453";"BRAC2_vertLA_1st0";0;42;635,239999974146;"L";1;0;NA;"L";"black";"blue";"parity";4;0;"Windows 10";"Chrome 83.0.4103.116";"1920x1007";1;0;1;0
"5dada613823b7d0016484453";"BRAC2_vertLA_1st0";0;43;505,995000014082;"A";1;0;NA;"A";"black";"red";"parity";1;0;"Windows 10";"Chrome 83.0.4103.116";"1920x1007";0;1;1;0
"5dada613823b7d0016484453";"BRAC2_vertLA_1st0";0;44;758,40499997139;"L";1;1;NA;"A";"black";"blue";"magnit";2;0;"Windows 10";"Chrome 83.0.4103.116";"1920x1007";1;0;1;0
"5dada613823b7d0016484453";"BRAC2_vertLA_1st0";0;45;608,449999941513;"L";1;0;NA;"L";"black";"blue";"magnit";9;0;"Windows 10";"Chrome 83.0.4103.116";"1920x1007";0;1;0;1
"5dada613823b7d0016484453";"BRAC2_vertLA_1st0";0;46;864,430000074208;"A";1;0;NA;"A";"black";"blue";"magnit";3;0;"Windows 10";"Chrome 83.0.4103.116";"1920x1007";0;1;0;0
"5dada613823b7d0016484453";"BRAC2_vertLA_1st0";0;47;549,725000048056;"L";1;0;NA;"L";"black";"red";"parity";6;0;"Windows 10";"Chrome 83.0.4103.116";"1920x1007";1;1;1;0
"5dada613823b7d0016484453";"BRAC2_vertLA_1st0";0;48;751,810000045225;"A";1;0;NA;"A";"black";"red";"magnit";3;0;"Windows 10";"Chrome 83.0.4103.116";"1920x1007";1;1;0;0
"5dada613823b7d0016484453";"BRAC2_vertLA_1st0";0;49;577,905000071041;"A";1;0;NA;"A";"black";"red";"parity";1;0;"Windows 10";"Chrome 83.0.4103.116";"1920x1007";1;0;0;0
"5dada613823b7d0016484453";"BRAC2_vertLA_1st0";0;50;491,005000076257;"L";1;1;NA;"A";"black";"red";"magnit";2;0;"Windows 10";"Chrome 83.0.4103.116";"1920x1007";1;0;0;0
"5dada613823b7d0016484453";"BRAC2_vertLA_1st0";0;51;776,085000019521;"A";1;0;NA;"A";"black";"red";"parity";7;0;"Windows 10";"Chrome 83.0.4103.116";"1920x1007";1;0;0;1
"5dada613823b7d0016484453";"BRAC2_vertLA_1st0";0;52;743,934999918565;"L";1;0;NA;"L";"black";"blue";"parity";4;0;"Windows 10";"Chrome 83.0.4103.116";"1920x1007";0;1;1;0
"5dada613823b7d0016484453";"BRAC2_vertLA_1st0";0;53;820,640000049025;"A";1;1;NA;"L";"black";"blue";"magnit";7;0;"Windows 10";"Chrome 83.0.4103.116";"1920x1007";1;0;0;0
"5dada613823b7d0016484453";"BRAC2_vertLA_1st0";0;54;592,790000024252;"L";1;0;NA;"L";"black";"red";"parity";8;0;"Windows 10";"Chrome 83.0.4103.116";"1920x1007";1;0;1;1
"5dada613823b7d0016484453";"BRAC2_vertLA_1st0";0;55;1267,44999992661;"A";1;0;NA;"A";"black";"blue";"magnit";4;0;"Windows 10";"Chrome 83.0.4103.116";"1920x1007";1;1;1;0
"5dada613823b7d0016484453";"BRAC2_vertLA_1st0";0;56;600,989999948069;"L";1;0;NA;"L";"black";"red";"parity";6;0;"Windows 10";"Chrome 83.0.4103.116";"1920x1007";1;1;1;0
"5dada613823b7d0016484453";"BRAC2_vertLA_1st0";0;57;769,235000014305;"A";1;0;NA;"A";"black";"red";"parity";9;0;"Windows 10";"Chrome 83.0.4103.116";"1920x1007";0;1;0;0
"5dada613823b7d0016484453";"BRAC2_vertLA_1st0";0;58;898,174999980256;"A";1;0;NA;"A";"black";"blue";"parity";7;0;"Windows 10";"Chrome 83.0.4103.116";"1920x1007";0;0;1;0
"5dada613823b7d0016484453";"BRAC2_vertLA_1st0";0;59;629,844999988563;"L";1;0;NA;"L";"black";"blue";"magnit";9;0;"Windows 10";"Chrome 83.0.4103.116";"1920x1007";1;1;0;0
"5dada613823b7d0016484453";"BRAC2_vertLA_1st0";0;60;1484,95000007097;"L";1;1;NA;"A";"black";"red";"magnit";2;0;"Windows 10";"Chrome 83.0.4103.116";"1920x1007";0;1;1;0
"5dada613823b7d0016484453";"BRAC2_vertLA_1st0";0;61;648,599999956787;"A";1;0;NA;"A";"black";"red";"parity";9;0;"Windows 10";"Chrome 83.0.4103.116";"1920x1007";1;0;0;1
"5dada613823b7d0016484453";"BRAC2_vertLA_1st0";0;62;782,389999949373;"A";1;0;NA;"A";"black";"red";"magnit";2;0;"Windows 10";"Chrome 83.0.4103.116";"1920x1007";1;0;0;0
"5dada613823b7d0016484453";"BRAC2_vertLA_1st0";0;63;968,384999898262;"L";1;1;NA;"A";"black";"red";"magnit";4;0;"Windows 10";"Chrome 83.0.4103.116";"1920x1007";0;0;0;0
"5dada613823b7d0016484453";"BRAC2_vertLA_1st0";0;64;465,100000030361;"A";1;0;NA;"A";"black";"red";"magnit";1;0;"Windows 10";"Chrome 83.0.4103.116";"1920x1007";0;0;0;1
"5dada613823b7d0016484453";"BRAC2_vertLA_1st0";0;65;1087,74500002619;"L";1;0;NA;"L";"black";"red";"magnit";9;0;"Windows 10";"Chrome 83.0.4103.116";"1920x1007";0;1;0;0
"5dada613823b7d0016484453";"BRAC2_vertLA_1st0";0;66;580,384999979287;"A";1;0;NA;"A";"black";"blue";"magnit";1;0;"Windows 10";"Chrome 83.0.4103.116";"1920x1007";0;1;1;0
"5dada613823b7d0016484453";"BRAC2_vertLA_1st0";0;67;1012,24999991246;"A";1;0;NA;"A";"black";"red";"magnit";3;0;"Windows 10";"Chrome 83.0.4103.116";"1920x1007";0;0;1;0
"5dada613823b7d0016484453";"BRAC2_vertLA_1st0";0;68;785,784999956377;"A";1;0;NA;"A";"black";"blue";"parity";9;0;"Windows 10";"Chrome 83.0.4103.116";"1920x1007";1;0;1;0
"5dada613823b7d0016484453";"BRAC2_vertLA_1st0";0;69;445,454999920912;"A";1;0;NA;"A";"black";"blue";"parity";1;0;"Windows 10";"Chrome 83.0.4103.116";"1920x1007";0;0;0;0
"5dada613823b7d0016484453";"BRAC2_vertLA_1st0";0;70;762,424999964423;"A";1;0;NA;"A";"black";"blue";"parity";7;0;"Windows 10";"Chrome 83.0.4103.116";"1920x1007";0;0;0;0
"5dada613823b7d0016484453";"BRAC2_vertLA_1st0";0;71;676,615000003949;"L";1;0;NA;"L";"black";"red";"magnit";8;0;"Windows 10";"Chrome 83.0.4103.116";"1920x1007";1;1;1;0
"5dada613823b7d0016484453";"BRAC2_vertLA_1st0";0;72;713,719999999739;"A";1;0;NA;"A";"black";"blue";"magnit";1;0;"Windows 10";"Chrome 83.0.4103.116";"1920x1007";0;1;1;0
"5dada613823b7d0016484453";"BRAC2_vertLA_1st0";0;73;550,434999982826;"L";1;0;NA;"L";"black";"blue";"magnit";6;0;"Windows 10";"Chrome 83.0.4103.116";"1920x1007";0;1;0;0
"5dada613823b7d0016484453";"BRAC2_vertLA_1st0";0;74;1216,03999997023;"A";1;0;NA;"A";"black";"red";"parity";7;0;"Windows 10";"Chrome 83.0.4103.116";"1920x1007";1;1;1;0
"5dada613823b7d0016484453";"BRAC2_vertLA_1st0";0;75;678,63999994006;"L";1;0;NA;"L";"black";"blue";"magnit";8;0;"Windows 10";"Chrome 83.0.4103.116";"1920x1007";1;1;1;0
"5dada613823b7d0016484453";"BRAC2_vertLA_1st0";0;76;467,764999950305;"L";1;0;NA;"L";"black";"red";"magnit";7;0;"Windows 10";"Chrome 83.0.4103.116";"1920x1007";0;0;1;0
"5dada613823b7d0016484453";"BRAC2_vertLA_1st0";0;77;570,730000035837;"L";1;0;NA;"L";"black";"red";"parity";8;0;"Windows 10";"Chrome 83.0.4103.116";"1920x1007";1;0;0;0
"5dada613823b7d0016484453";"BRAC2_vertLA_1st0";0;78;515,599999926053;"L";1;0;NA;"L";"black";"red";"parity";4;0;"Windows 10";"Chrome 83.0.4103.116";"1920x1007";0;0;0;0
"5dada613823b7d0016484453";"BRAC2_vertLA_1st0";0;79;501,614999957383;"L";1;0;NA;"L";"black";"blue";"parity";6;0;"Windows 10";"Chrome 83.0.4103.116";"1920x1007";0;0;1;0
"5dada613823b7d0016484453";"BRAC2_vertLA_1st0";0;80;562,274999916553;"L";1;0;NA;"L";"black";"red";"magnit";7;0;"Windows 10";"Chrome 83.0.4103.116";"1920x1007";1;0;1;0
"5dada613823b7d0016484453";"BRAC2_vertLA_1st0";0;81;435,78499997966;"L";1;0;NA;"L";"black";"blue";"magnit";9;0;"Windows 10";"Chrome 83.0.4103.116";"1920x1007";0;0;1;0
"5dada613823b7d0016484453";"BRAC2_vertLA_1st0";0;82;1203,59000004828;"A";1;0;NA;"A";"black";"red";"parity";3;0;"Windows 10";"Chrome 83.0.4103.116";"1920x1007";1;1;1;0
"5dada613823b7d0016484453";"BRAC2_vertLA_1st0";0;83;504,740000003949;"A";1;0;NA;"A";"black";"blue";"parity";1;0;"Windows 10";"Chrome 83.0.4103.116";"1920x1007";0;0;1;0
"5dada613823b7d0016484453";"BRAC2_vertLA_1st0";0;84;701,269999961369;"L";1;0;NA;"L";"black";"red";"magnit";8;0;"Windows 10";"Chrome 83.0.4103.116";"1920x1007";1;1;1;0
"5dada613823b7d0016484453";"BRAC2_vertLA_1st0";0;85;481,724999961443;"L";1;1;NA;"A";"black";"red";"magnit";4;0;"Windows 10";"Chrome 83.0.4103.116";"1920x1007";0;1;0;0
"5dada613823b7d0016484453";"BRAC2_vertLA_1st0";0;86;519,930000067689;"L";1;0;NA;"L";"black";"blue";"magnit";8;0;"Windows 10";"Chrome 83.0.4103.116";"1920x1007";0;1;1;1
"5dada613823b7d0016484453";"BRAC2_vertLA_1st0";0;87;986,159999971278;"L";1;0;NA;"L";"black";"blue";"parity";2;0;"Windows 10";"Chrome 83.0.4103.116";"1920x1007";1;0;0;0
"5dada613823b7d0016484453";"BRAC2_vertLA_1st0";0;88;474,81499996502;"L";1;0;NA;"L";"black";"blue";"parity";6;0;"Windows 10";"Chrome 83.0.4103.116";"1920x1007";0;0;0;0
"5dada613823b7d0016484453";"BRAC2_vertLA_1st0";0;89;568,770000012591;"A";1;0;NA;"A";"black";"blue";"parity";3;0;"Windows 10";"Chrome 83.0.4103.116";"1920x1007";0;1;0;0
"5dada613823b7d0016484453";"BRAC2_vertLA_1st0";0;90;674,230000004172;"A";1;0;NA;"A";"black";"blue";"magnit";4;0;"Windows 10";"Chrome 83.0.4103.116";"1920x1007";1;0;0;0
"5dada613823b7d0016484453";"BRAC2_vertLA_1st0";0;91;686,204999918118;"A";1;0;NA;"A";"black";"red";"parity";7;0;"Windows 10";"Chrome 83.0.4103.116";"1920x1007";1;0;1;0
"5dada613823b7d0016484453";"BRAC2_vertLA_1st0";0;92;588,394999969751;"L";1;1;NA;"A";"black";"blue";"magnit";2;0;"Windows 10";"Chrome 83.0.4103.116";"1920x1007";1;0;1;0
"5dada613823b7d0016484453";"BRAC2_vertLA_1st0";0;93;1396,93499996793;"A";1;0;NA;"A";"black";"red";"magnit";4;0;"Windows 10";"Chrome 83.0.4103.116";"1920x1007";0;0;1;1
"5dada613823b7d0016484453";"BRAC2_vertLA_1st0";0;94;652,854999992996;"A";1;0;NA;"A";"black";"blue";"parity";9;0;"Windows 10";"Chrome 83.0.4103.116";"1920x1007";1;0;1;0
"5dada613823b7d0016484453";"BRAC2_vertLA_1st0";0;95;434,744999976829;"L";1;0;NA;"L";"black";"red";"parity";4;0;"Windows 10";"Chrome 83.0.4103.116";"1920x1007";0;1;1;0
"5dada613823b7d0016484453";"BRAC2_vertLA_1st0";1;0;1328,71999999043;"L";1;1;NA;"A";"black";"red";"magnit";1;300;"Windows 10";"Chrome 83.0.4103.116";"1920x1007";99;99;99;99
"5dada613823b7d0016484453";"BRAC2_vertLA_1st0";1;1;1755,85000007413;"A";1;0;NA;"A";"black";"blue";"parity";9;300;"Windows 10";"Chrome 83.0.4103.116";"1920x1007";1;0;1;1
"5dada613823b7d0016484453";"BRAC2_vertLA_1st0";1;2;1013,44999996945;"L";1;0;NA;"L";"black";"blue";"parity";2;300;"Windows 10";"Chrome 83.0.4103.116";"1920x1007";0;1;0;0
"5dada613823b7d0016484453";"BRAC2_vertLA_1st0";1;3;1204,85500001814;"A";1;0;NA;"A";"black";"blue";"magnit";1;300;"Windows 10";"Chrome 83.0.4103.116";"1920x1007";1;1;0;0
"5dada613823b7d0016484453";"BRAC2_vertLA_1st0";1;4;723,304999992251;"L";1;0;NA;"L";"black";"blue";"magnit";8;300;"Windows 10";"Chrome 83.0.4103.116";"1920x1007";0;1;0;0
"5dada613823b7d0016484453";"BRAC2_vertLA_1st0";1;5;966,234999941662;"A";1;0;NA;"A";"black";"red";"parity";7;300;"Windows 10";"Chrome 83.0.4103.116";"1920x1007";1;1;1;0
"5dada613823b7d0016484453";"BRAC2_vertLA_1st0";1;6;1350,85499996785;"L";1;0;NA;"L";"black";"blue";"magnit";9;300;"Windows 10";"Chrome 83.0.4103.116";"1920x1007";1;1;1;0
"5dada613823b7d0016484453";"BRAC2_vertLA_1st0";1;7;1091,81999997236;"L";1;0;NA;"L";"black";"red";"parity";2;300;"Windows 10";"Chrome 83.0.4103.116";"1920x1007";1;0;1;0
"5dada613823b7d0016484453";"BRAC2_vertLA_1st0";1;8;688,129999907687;"A";1;0;NA;"A";"black";"red";"parity";7;300;"Windows 10";"Chrome 83.0.4103.116";"1920x1007";0;1;0;0
"5dada613823b7d0016484453";"BRAC2_vertLA_1st0";1;9;1061,25000002794;"L";1;0;NA;"L";"black";"blue";"parity";8;300;"Windows 10";"Chrome 83.0.4103.116";"1920x1007";0;1;1;0
"5dada613823b7d0016484453";"BRAC2_vertLA_1st0";1;10;514,084999915212;"A";1;0;NA;"A";"black";"blue";"magnit";2;300;"Windows 10";"Chrome 83.0.4103.116";"1920x1007";1;1;0;0
"5dada613823b7d0016484453";"BRAC2_vertLA_1st0";1;11;1317,51500000246;"A";1;0;NA;"A";"black";"red";"parity";9;300;"Windows 10";"Chrome 83.0.4103.116";"1920x1007";1;0;1;0
"5dada613823b7d0016484453";"BRAC2_vertLA_1st0";1;12;440,840000053868;"L";1;0;NA;"L";"black";"blue";"magnit";8;300;"Windows 10";"Chrome 83.0.4103.116";"1920x1007";1;1;1;0
"5dada613823b7d0016484453";"BRAC2_vertLA_1st0";1;13;568,250000011176;"A";1;0;NA;"A";"black";"blue";"parity";3;300;"Windows 10";"Chrome 83.0.4103.116";"1920x1007";1;1;0;0
"5dada613823b7d0016484453";"BRAC2_vertLA_1st0";1;14;647,73999992758;"L";1;0;NA;"L";"black";"blue";"parity";4;300;"Windows 10";"Chrome 83.0.4103.116";"1920x1007";0;1;0;0
"5dada613823b7d0016484453";"BRAC2_vertLA_1st0";1;15;631,159999989904;"A";1;0;NA;"A";"black";"blue";"parity";3;300;"Windows 10";"Chrome 83.0.4103.116";"1920x1007";0;1;0;0
"5dada613823b7d0016484453";"BRAC2_vertLA_1st0";1;16;494,584999978542;"L";1;1;NA;"A";"black";"red";"magnit";4;300;"Windows 10";"Chrome 83.0.4103.116";"1920x1007";1;0;1;0
"5dada613823b7d0016484453";"BRAC2_vertLA_1st0";1;17;450,539999990724;"L";1;0;NA;"L";"black";"red";"magnit";6;300;"Windows 10";"Chrome 83.0.4103.116";"1920x1007";0;1;0;1
"5dada613823b7d0016484453";"BRAC2_vertLA_1st0";1;18;398,960000020452;"L";1;0;NA;"L";"black";"red";"magnit";8;300;"Windows 10";"Chrome 83.0.4103.116";"1920x1007";0;0;0;0
"5dada613823b7d0016484453";"BRAC2_vertLA_1st0";1;19;505,059999995865;"L";1;0;NA;"L";"black";"red";"parity";6;300;"Windows 10";"Chrome 83.0.4103.116";"1920x1007";1;0;0;0
"5dada613823b7d0016484453";"BRAC2_vertLA_1st0";1;20;830,139999976382;"A";1;1;NA;"L";"black";"red";"magnit";9;300;"Windows 10";"Chrome 83.0.4103.116";"1920x1007";1;0;0;0
"5dada613823b7d0016484453";"BRAC2_vertLA_1st0";1;21;1450,66999993287;"A";1;0;NA;"A";"black";"red";"magnit";3;300;"Windows 10";"Chrome 83.0.4103.116";"1920x1007";0;1;0;1
"5dada613823b7d0016484453";"BRAC2_vertLA_1st0";1;22;553,360000019893;"A";1;0;NA;"A";"black";"red";"magnit";2;300;"Windows 10";"Chrome 83.0.4103.116";"1920x1007";0;0;0;0
"5dada613823b7d0016484453";"BRAC2_vertLA_1st0";1;23;450,58499998413;"L";1;1;NA;"A";"black";"blue";"parity";9;300;"Windows 10";"Chrome 83.0.4103.116";"1920x1007";1;0;1;0
"5dada613823b7d0016484453";"BRAC2_vertLA_1st0";1;24;1018,38499994483;"L";1;0;NA;"L";"black";"red";"magnit";7;300;"Windows 10";"Chrome 83.0.4103.116";"1920x1007";1;1;1;1
"5dada613823b7d0016484453";"BRAC2_vertLA_1st0";1;25;736,80999991484;"L";1;0;NA;"L";"black";"red";"parity";2;300;"Windows 10";"Chrome 83.0.4103.116";"1920x1007";1;0;0;0
"5dada613823b7d0016484453";"BRAC2_vertLA_1st0";1;26;1147,57999998983;"L";1;0;NA;"L";"black";"blue";"magnit";6;300;"Windows 10";"Chrome 83.0.4103.116";"1920x1007";1;0;1;0
"5dada613823b7d0016484453";"BRAC2_vertLA_1st0";1;27;395,3249999322;"L";1;0;NA;"L";"black";"blue";"magnit";8;300;"Windows 10";"Chrome 83.0.4103.116";"1920x1007";0;0;0;0
"5dada613823b7d0016484453";"BRAC2_vertLA_1st0";1;28;1156,2649999978;"L";1;0;NA;"L";"black";"blue";"parity";6;300;"Windows 10";"Chrome 83.0.4103.116";"1920x1007";1;0;0;0
"5dada613823b7d0016484453";"BRAC2_vertLA_1st0";1;29;1072,61500007007;"L";1;0;NA;"L";"black";"blue";"parity";2;300;"Windows 10";"Chrome 83.0.4103.116";"1920x1007";0;0;0;0
"5dada613823b7d0016484453";"BRAC2_vertLA_1st0";1;30;444,574999972247;"L";1;0;NA;"L";"black";"blue";"parity";4;300;"Windows 10";"Chrome 83.0.4103.116";"1920x1007";0;0;0;0
"5dada613823b7d0016484453";"BRAC2_vertLA_1st0";1;31;548,165000043809;"A";1;0;NA;"A";"black";"red";"magnit";1;300;"Windows 10";"Chrome 83.0.4103.116";"1920x1007";1;1;1;0
"5dada613823b7d0016484453";"BRAC2_vertLA_1st0";1;32;405,89000005275;"L";1;0;NA;"L";"black";"blue";"parity";4;300;"Windows 10";"Chrome 83.0.4103.116";"1920x1007";1;1;1;0
"5dada613823b7d0016484453";"BRAC2_vertLA_1st0";1;33;1197,10999995004;"L";1;0;NA;"L";"black";"red";"magnit";6;300;"Windows 10";"Chrome 83.0.4103.116";"1920x1007";1;0;1;0
"5dada613823b7d0016484453";"BRAC2_vertLA_1st0";1;34;428,719999967143;"L";1;0;NA;"L";"black";"red";"magnit";9;300;"Windows 10";"Chrome 83.0.4103.116";"1920x1007";0;0;0;0
"5dada613823b7d0016484453";"BRAC2_vertLA_1st0";1;35;500,340000027791;"A";1;0;NA;"A";"black";"red";"parity";1;300;"Windows 10";"Chrome 83.0.4103.116";"1920x1007";1;1;0;0
"5dada613823b7d0016484453";"BRAC2_vertLA_1st0";1;36;567,275000037625;"L";1;0;NA;"L";"black";"red";"magnit";8;300;"Windows 10";"Chrome 83.0.4103.116";"1920x1007";1;1;0;0
"5dada613823b7d0016484453";"BRAC2_vertLA_1st0";1;37;801,200000103563;"A";1;0;NA;"A";"black";"blue";"magnit";2;300;"Windows 10";"Chrome 83.0.4103.116";"1920x1007";0;1;1;0
"5dada613823b7d0016484453";"BRAC2_vertLA_1st0";1;38;393,889999948442;"A";1;0;NA;"A";"black";"red";"magnit";1;300;"Windows 10";"Chrome 83.0.4103.116";"1920x1007";0;0;1;0
"5dada613823b7d0016484453";"BRAC2_vertLA_1st0";1;39;570,474999956787;"L";1;0;NA;"L";"black";"blue";"parity";8;300;"Windows 10";"Chrome 83.0.4103.116";"1920x1007";1;1;1;0
"5dada613823b7d0016484453";"BRAC2_vertLA_1st0";1;40;468,499999959022;"A";1;0;NA;"A";"black";"blue";"magnit";3;300;"Windows 10";"Chrome 83.0.4103.116";"1920x1007";1;1;0;0
"5dada613823b7d0016484453";"BRAC2_vertLA_1st0";1;41;353,639999986626;"A";1;0;NA;"A";"black";"blue";"magnit";2;300;"Windows 10";"Chrome 83.0.4103.116";"1920x1007";0;0;0;0
"5dada613823b7d0016484453";"BRAC2_vertLA_1st0";1;42;475,189999910071;"A";1;0;NA;"A";"black";"blue";"magnit";4;300;"Windows 10";"Chrome 83.0.4103.116";"1920x1007";0;0;0;0
"5dada613823b7d0016484453";"BRAC2_vertLA_1st0";1;43;704,679999966174;"L";1;1;NA;"A";"black";"blue";"parity";7;300;"Windows 10";"Chrome 83.0.4103.116";"1920x1007";1;0;0;0
"5dada613823b7d0016484453";"BRAC2_vertLA_1st0";1;44;501,545000006445;"A";1;0;NA;"A";"black";"red";"parity";3;300;"Windows 10";"Chrome 83.0.4103.116";"1920x1007";0;0;1;1
"5dada613823b7d0016484453";"BRAC2_vertLA_1st0";1;45;486,779999919236;"L";1;0;NA;"L";"black";"blue";"parity";6;300;"Windows 10";"Chrome 83.0.4103.116";"1920x1007";0;1;1;0
"5dada613823b7d0016484453";"BRAC2_vertLA_1st0";1;46;987,929999944754;"A";1;0;NA;"A";"black";"red";"magnit";3;300;"Windows 10";"Chrome 83.0.4103.116";"1920x1007";1;1;1;0
"5dada613823b7d0016484453";"BRAC2_vertLA_1st0";1;47;469,879999989644;"A";1;0;NA;"A";"black";"red";"magnit";2;300;"Windows 10";"Chrome 83.0.4103.116";"1920x1007";0;0;0;0
"5dada613823b7d0016484453";"BRAC2_vertLA_1st0";1;48;979,874999960884;"L";1;1;NA;"A";"black";"blue";"parity";3;300;"Windows 10";"Chrome 83.0.4103.116";"1920x1007";1;0;1;0
"5dada613823b7d0016484453";"BRAC2_vertLA_1st0";1;49;444,834999972954;"A";1;0;NA;"A";"black";"blue";"parity";1;300;"Windows 10";"Chrome 83.0.4103.116";"1920x1007";0;0;0;1
"5dada613823b7d0016484453";"BRAC2_vertLA_1st0";1;50;418,80499990657;"A";1;0;NA;"A";"black";"blue";"magnit";3;300;"Windows 10";"Chrome 83.0.4103.116";"1920x1007";1;0;0;0
"5dada613823b7d0016484453";"BRAC2_vertLA_1st0";1;51;586,320000002161;"A";1;0;NA;"A";"black";"red";"parity";1;300;"Windows 10";"Chrome 83.0.4103.116";"1920x1007";1;0;1;0
"5dada613823b7d0016484453";"BRAC2_vertLA_1st0";1;52;448,860000004061;"L";1;0;NA;"L";"black";"red";"parity";6;300;"Windows 10";"Chrome 83.0.4103.116";"1920x1007";0;1;0;0
"5dada613823b7d0016484453";"BRAC2_vertLA_1st0";1;53;561,160000041127;"L";1;0;NA;"L";"black";"red";"parity";8;300;"Windows 10";"Chrome 83.0.4103.116";"1920x1007";0;0;0;0
"5dada613823b7d0016484453";"BRAC2_vertLA_1st0";1;54;657,894999952987;"A";1;1;NA;"L";"black";"blue";"magnit";7;300;"Windows 10";"Chrome 83.0.4103.116";"1920x1007";1;0;1;0
"5dada613823b7d0016484453";"BRAC2_vertLA_1st0";1;55;704,254999989644;"L";1;0;NA;"L";"black";"red";"magnit";9;300;"Windows 10";"Chrome 83.0.4103.116";"1920x1007";0;0;1;1
"5dada613823b7d0016484453";"BRAC2_vertLA_1st0";1;56;430,130000109784;"L";1;0;NA;"L";"black";"blue";"magnit";7;300;"Windows 10";"Chrome 83.0.4103.116";"1920x1007";0;0;1;0
"5dada613823b7d0016484453";"BRAC2_vertLA_1st0";1;57;428,025000030175;"L";1;0;NA;"L";"black";"blue";"magnit";6;300;"Windows 10";"Chrome 83.0.4103.116";"1920x1007";0;0;0;0
"5dada613823b7d0016484453";"BRAC2_vertLA_1st0";1;58;426,055000047199;"L";1;0;NA;"L";"black";"red";"magnit";7;300;"Windows 10";"Chrome 83.0.4103.116";"1920x1007";0;0;1;0
"5dada613823b7d0016484453";"BRAC2_vertLA_1st0";1;59;505,720000015572;"L";1;0;NA;"L";"black";"red";"parity";8;300;"Windows 10";"Chrome 83.0.4103.116";"1920x1007";1;0;0;0
"5dada613823b7d0016484453";"BRAC2_vertLA_1st0";1;60;851,799999945797;"L";1;1;NA;"A";"black";"blue";"magnit";4;300;"Windows 10";"Chrome 83.0.4103.116";"1920x1007";1;1;1;0
"5dada613823b7d0016484453";"BRAC2_vertLA_1st0";1;61;443,180000060238;"L";1;0;NA;"L";"black";"red";"magnit";7;300;"Windows 10";"Chrome 83.0.4103.116";"1920x1007";0;1;1;1
"5dada613823b7d0016484453";"BRAC2_vertLA_1st0";1;62;818,784999893978;"A";1;1;NA;"L";"black";"red";"parity";4;300;"Windows 10";"Chrome 83.0.4103.116";"1920x1007";1;0;0;0
"5dada613823b7d0016484453";"BRAC2_vertLA_1st0";1;63;888,514999998733;"A";1;0;NA;"A";"black";"blue";"parity";9;300;"Windows 10";"Chrome 83.0.4103.116";"1920x1007";0;1;1;1
"5dada613823b7d0016484453";"BRAC2_vertLA_1st0";1;64;502,169999992475;"L";1;0;NA;"L";"black";"blue";"parity";2;300;"Windows 10";"Chrome 83.0.4103.116";"1920x1007";0;1;0;0
"5dada613823b7d0016484453";"BRAC2_vertLA_1st0";1;65;1010,70500002243;"A";1;0;NA;"A";"black";"red";"parity";9;300;"Windows 10";"Chrome 83.0.4103.116";"1920x1007";0;1;1;0
"5dada613823b7d0016484453";"BRAC2_vertLA_1st0";1;66;682,980000041425;"L";1;0;NA;"L";"black";"red";"parity";2;300;"Windows 10";"Chrome 83.0.4103.116";"1920x1007";0;1;0;0
"5dada613823b7d0016484453";"BRAC2_vertLA_1st0";1;67;686,719999997877;"L";1;0;NA;"L";"black";"red";"magnit";6;300;"Windows 10";"Chrome 83.0.4103.116";"1920x1007";1;0;0;0
"5dada613823b7d0016484453";"BRAC2_vertLA_1st0";1;68;627,235000021756;"L";1;0;NA;"L";"black";"red";"parity";8;300;"Windows 10";"Chrome 83.0.4103.116";"1920x1007";1;0;0;0
"5dada613823b7d0016484453";"BRAC2_vertLA_1st0";1;69;987,944999942556;"A";1;0;NA;"A";"black";"blue";"parity";7;300;"Windows 10";"Chrome 83.0.4103.116";"1920x1007";0;1;1;0
"5dada613823b7d0016484453";"BRAC2_vertLA_1st0";1;70;611,945000011474;"L";1;0;NA;"L";"black";"blue";"magnit";6;300;"Windows 10";"Chrome 83.0.4103.116";"1920x1007";1;1;0;0
"5dada613823b7d0016484453";"BRAC2_vertLA_1st0";1;71;668,659999966621;"A";1;1;NA;"L";"black";"blue";"magnit";9;300;"Windows 10";"Chrome 83.0.4103.116";"1920x1007";0;0;0;0
"5dada613823b7d0016484453";"BRAC2_vertLA_1st0";1;72;521,910000010394;"A";1;0;NA;"A";"black";"blue";"magnit";3;300;"Windows 10";"Chrome 83.0.4103.116";"1920x1007";0;1;0;1
"5dada613823b7d0016484453";"BRAC2_vertLA_1st0";1;73;780,380000011064;"A";1;0;NA;"A";"black";"blue";"magnit";1;300;"Windows 10";"Chrome 83.0.4103.116";"1920x1007";0;0;0;0
"5dada613823b7d0016484453";"BRAC2_vertLA_1st0";1;74;501,219999976456;"A";1;0;NA;"A";"black";"blue";"parity";7;300;"Windows 10";"Chrome 83.0.4103.116";"1920x1007";1;0;0;0
"5dada613823b7d0016484453";"BRAC2_vertLA_1st0";1;75;409,60500005167;"A";1;0;NA;"A";"black";"blue";"parity";1;300;"Windows 10";"Chrome 83.0.4103.116";"1920x1007";0;0;0;0
"5dada613823b7d0016484453";"BRAC2_vertLA_1st0";1;76;1169,66500005219;"A";1;0;NA;"A";"black";"blue";"magnit";4;300;"Windows 10";"Chrome 83.0.4103.116";"1920x1007";1;0;0;0
"5dada613823b7d0016484453";"BRAC2_vertLA_1st0";1;77;681,920000002719;"A";1;0;NA;"A";"black";"red";"parity";3;300;"Windows 10";"Chrome 83.0.4103.116";"1920x1007";1;0;1;0
"5dada613823b7d0016484453";"BRAC2_vertLA_1st0";1;78;709,774999995716;"L";1;0;NA;"L";"black";"blue";"parity";8;300;"Windows 10";"Chrome 83.0.4103.116";"1920x1007";0;1;1;0
"5dada613823b7d0016484453";"BRAC2_vertLA_1st0";1;79;762,310000020079;"L";1;0;NA;"L";"black";"red";"parity";4;300;"Windows 10";"Chrome 83.0.4103.116";"1920x1007";0;0;1;0
"5dada613823b7d0016484453";"BRAC2_vertLA_1st0";1;80;684,164999984205;"L";1;0;NA;"L";"black";"blue";"parity";6;300;"Windows 10";"Chrome 83.0.4103.116";"1920x1007";0;0;1;0
"5dada613823b7d0016484453";"BRAC2_vertLA_1st0";1;81;754,205000004731;"A";1;1;NA;"L";"black";"blue";"magnit";9;300;"Windows 10";"Chrome 83.0.4103.116";"1920x1007";1;0;0;0
"5dada613823b7d0016484453";"BRAC2_vertLA_1st0";1;82;427,569999941625;"L";1;0;NA;"L";"black";"red";"magnit";8;300;"Windows 10";"Chrome 83.0.4103.116";"1920x1007";0;0;1;1
"5dada613823b7d0016484453";"BRAC2_vertLA_1st0";1;83;1009,3249999918;"L";1;0;NA;"L";"black";"red";"parity";6;300;"Windows 10";"Chrome 83.0.4103.116";"1920x1007";1;0;0;0
"5dada613823b7d0016484453";"BRAC2_vertLA_1st0";1;84;1362,73000005167;"A";1;0;NA;"A";"black";"red";"parity";7;300;"Windows 10";"Chrome 83.0.4103.116";"1920x1007";0;1;0;0
"5dada613823b7d0016484453";"BRAC2_vertLA_1st0";1;85;571,854999987409;"A";1;0;NA;"A";"black";"blue";"parity";1;300;"Windows 10";"Chrome 83.0.4103.116";"1920x1007";0;0;1;0
"5dada613823b7d0016484453";"BRAC2_vertLA_1st0";1;86;628,885000012815;"L";1;1;NA;"A";"black";"red";"magnit";2;300;"Windows 10";"Chrome 83.0.4103.116";"1920x1007";1;0;1;0
"5dada613823b7d0016484453";"BRAC2_vertLA_1st0";1;87;652,38500002306;"L";1;0;NA;"L";"black";"blue";"magnit";7;300;"Windows 10";"Chrome 83.0.4103.116";"1920x1007";0;1;1;1
"5dada613823b7d0016484453";"BRAC2_vertLA_1st0";1;88;969,64000002481;"A";1;0;NA;"A";"black";"red";"parity";3;300;"Windows 10";"Chrome 83.0.4103.116";"1920x1007";1;1;1;0
"5dada613823b7d0016484453";"BRAC2_vertLA_1st0";1;89;514,580000075512;"L";1;1;NA;"A";"black";"red";"magnit";4;300;"Windows 10";"Chrome 83.0.4103.116";"1920x1007";1;0;0;0
"5dada613823b7d0016484453";"BRAC2_vertLA_1st0";1;90;566,640000091866;"A";1;0;NA;"A";"black";"blue";"magnit";1;300;"Windows 10";"Chrome 83.0.4103.116";"1920x1007";0;0;1;1
"5dada613823b7d0016484453";"BRAC2_vertLA_1st0";1;91;744,745000032708;"A";1;0;NA;"A";"black";"red";"magnit";4;300;"Windows 10";"Chrome 83.0.4103.116";"1920x1007";0;0;1;0
"5dada613823b7d0016484453";"BRAC2_vertLA_1st0";1;92;1265,77000005636;"A";1;0;NA;"A";"black";"red";"parity";1;300;"Windows 10";"Chrome 83.0.4103.116";"1920x1007";1;0;0;0
"5dada613823b7d0016484453";"BRAC2_vertLA_1st0";1;93;552,735000033863;"L";1;0;NA;"L";"black";"red";"parity";4;300;"Windows 10";"Chrome 83.0.4103.116";"1920x1007";0;1;0;0
"5dada613823b7d0016484453";"BRAC2_vertLA_1st0";1;94;512,80999998562;"A";1;0;NA;"A";"black";"red";"magnit";3;300;"Windows 10";"Chrome 83.0.4103.116";"1920x1007";1;1;0;0
"5dada613823b7d0016484453";"BRAC2_vertLA_1st0";1;95;1253,17499996163;"A";1;0;NA;"A";"black";"red";"parity";9;300;"Windows 10";"Chrome 83.0.4103.116";"1920x1007";1;0;0;0
"5dada613823b7d0016484453";"BRAC2_vertLA_1st0";2;0;1175,63500010874;"A";1;1;NA;"L";"black";"red";"parity";8;0;"Windows 10";"Chrome 83.0.4103.116";"1920x1007";99;99;99;99
"5dada613823b7d0016484453";"BRAC2_vertLA_1st0";2;1;488,645000034012;"L";1;0;NA;"L";"black";"red";"parity";6;0;"Windows 10";"Chrome 83.0.4103.116";"1920x1007";0;0;0;1
"5dada613823b7d0016484453";"BRAC2_vertLA_1st0";2;2;540,649999980815;"A";1;0;NA;"A";"black";"red";"parity";7;0;"Windows 10";"Chrome 83.0.4103.116";"1920x1007";0;1;0;0
"5dada613823b7d0016484453";"BRAC2_vertLA_1st0";2;3;519,794999971054;"A";1;0;NA;"A";"black";"blue";"parity";3;0;"Windows 10";"Chrome 83.0.4103.116";"1920x1007";0;0;1;0
"5dada613823b7d0016484453";"BRAC2_vertLA_1st0";2;4;603,619999950752;"L";1;0;NA;"L";"black";"blue";"parity";6;0;"Windows 10";"Chrome 83.0.4103.116";"1920x1007";0;1;0;0
"5dada613823b7d0016484453";"BRAC2_vertLA_1st0";2;5;674,834999954328;"L";1;0;NA;"L";"black";"red";"parity";4;0;"Windows 10";"Chrome 83.0.4103.116";"1920x1007";0;0;1;0
"5dada613823b7d0016484453";"BRAC2_vertLA_1st0";2;6;521,13000000827;"A";1;1;NA;"L";"black";"blue";"magnit";7;0;"Windows 10";"Chrome 83.0.4103.116";"1920x1007";1;0;1;0
"5dada613823b7d0016484453";"BRAC2_vertLA_1st0";2;7;548,114999895915;"A";1;0;NA;"A";"black";"red";"magnit";1;0;"Windows 10";"Chrome 83.0.4103.116";"1920x1007";0;1;1;1
"5dada613823b7d0016484453";"BRAC2_vertLA_1st0";2;8;413,700000033714;"L";1;0;NA;"L";"black";"blue";"magnit";7;0;"Windows 10";"Chrome 83.0.4103.116";"1920x1007";0;1;1;0
"5dada613823b7d0016484453";"BRAC2_vertLA_1st0";2;9;501,464999979362;"A";1;0;NA;"A";"black";"blue";"magnit";1;0;"Windows 10";"Chrome 83.0.4103.116";"1920x1007";0;1;0;0
"5dada613823b7d0016484453";"BRAC2_vertLA_1st0";2;10;497,130000032485;"L";1;0;NA;"L";"black";"blue";"parity";4;0;"Windows 10";"Chrome 83.0.4103.116";"1920x1007";1;1;0;0
"5dada613823b7d0016484453";"BRAC2_vertLA_1st0";2;11;437,434999970719;"L";1;0;NA;"L";"black";"red";"magnit";8;0;"Windows 10";"Chrome 83.0.4103.116";"1920x1007";1;0;1;0
"5dada613823b7d0016484453";"BRAC2_vertLA_1st0";2;12;506,455000024289;"A";1;0;NA;"A";"black";"red";"parity";3;0;"Windows 10";"Chrome 83.0.4103.116";"1920x1007";1;1;0;0
"5dada613823b7d0016484453";"BRAC2_vertLA_1st0";2;13;750,114999944344;"L";1;0;NA;"L";"black";"red";"parity";2;0;"Windows 10";"Chrome 83.0.4103.116";"1920x1007";0;1;0;0
